Time (s);Linear Acceleration x (m/s^2);Linear Acceleration y (m/s^2);Linear Acceleration z (m/s^2);Absolute acceleration (m/s^2)
0,008454208;-0,051057887;-0,230119511;-0,837511316;0,870050057
0,018475208;-0,413671943;0,065084773;-1,047159725;1,127787211
0,028495208;-0,316227217;0,152462055;-1,035883369;1,093754399
0,038516208;-0,495507234;0,106999369;-1,038994673;1,15606497
0,048537208;-0,570114343;0,140430824;-0,870953296;1,050386036
0,058557208;-0,602372994;0,172465965;-0,697972192;0,937956776
0,068578208;-0,569781491;0,166581911;-0,418843659;0,726519436
0,078598208;-0,459024847;0,141832986;-0,153663073;0,50441327
0,088619208;-0,090804482;0,149694568;-0,069864872;0,188507342
0,098639208;0,093959932;0,148195342;0,009529207;0,175730287
0,108660208;-0,084455283;0,171426622;0,161182008;0,249998842
0,118680208;-0,326406634;0,197308445;0,274290547;0,469794868
0,128701208;-0,432665161;0,232727077;0,137862727;0,510261859
0,138721208;-0,490436236;0,2945301;-0,031894222;0,572968518
0,148742208;-0,573022164;0,311263661;-0,146552859;0,668369065
0,158763208;-0,610992374;0,300186111;-0,173527234;0,702520522
0,168783208;-0,512487402;0,272481126;-0,047945999;0,582398592
0,178804208;-0,429640104;0,123925304;-0,02135754;0,447665326
0,188824208;-0,496591015;0,080043412;-0,180550325;0,534423057
0,198845208;-0,524151866;0,153175415;-0,318572681;0,632207592
0,208865208;-0,413138969;0,220992592;-0,372039621;0,598276702
0,218886208;-0,293397275;0,198755046;-0,267851593;0,444218421
0,228906208;-0,226752246;0,153845799;-0,065543779;0,281746513
0,238927208;-0,204376486;0,164861953;0,122379885;0,289699927
0,248948208;-0,154412394;0,181080083;0,254837446;0,348676508
0,258968208;-0,141573882;0,114308096;0,277987157;0,332244435
0,268989208;-0,156409803;0,008070912;0,297668885;0,336356851
0,279009208;-0,140402465;-0,080227892;0,327421857;0,365177271
0,289030208;-0,080419169;-0,181499328;0,341955112;0,395401754
0,299050208;-0,095554613;-0,229426031;0,263237556;0,362023478
0,309071208;-0,230330668;-0,153173369;0,206331283;0,345089693
0,319091208;-0,313152239;-0,033480572;0,242316803;0,397369735
0,329112208;-0,192537227;-0,013058879;0,2290407;0,299500851
0,339133208;0,082599943;-0,090305276;0,15587566;0,198179249
0,349153208;0,15170548;-0,072856307;0,139227467;0,218419051
0,359174208;0,072494227;0,047773214;0,085233693;0,121665424
0,369194208;0,019697342;0,117710298;0,002870983;0,119381498
0,379215208;-0,072840899;0,085416711;-0,135513901;0,175971101
0,389235208;-0,113020804;0,065169265;-0,217638629;0,253746543
0,399256208;-0,250548988;0,08158006;-0,34351164;0,432932268
0,409276208;-0,217656372;0,168972546;-0,533424527;0,60038966
0,419297208;-0,05614396;0,294903152;-0,606591906;0,676811461
0,429317208;0,180009275;0,375365225;-0,634906463;0,759215785
0,439338208;0,294677267;0,361439204;-0,552458383;0,722968364
0,449359208;0,238195174;0,27087285;-0,454568392;0,580294291
0,459379208;0,153033876;0,170660637;-0,351950342;0,420016028
0,469400208;0,104985588;0,188018389;-0,243028409;0,324708632
0,479420208;0,010396934;0,127568996;0,170119477;0,212891008
0,489441208;0,018709372;0,092547098;0,496633846;0,505529607
0,499461208;0,141411293;0,05620139;0,77451166;0,789318733
0,509482208;0,205156724;-0,151653385;0,948474512;0,98218732
0,519502208;0,163601988;-0,671780759;1,254355227;1,43229258
0,529523208;0,068884184;-1,095491932;1,205001218;1,629992497
0,539544208;0,258920812;-0,703032665;0,8542823;1,136262805
0,549564208;-0,002367136;-0,72354002;0,935284948;1,182486235
0,559585208;0,075386178;-0,522048769;0,631919121;0,823128039
0,569605208;0,10838165;-0,270781049;0,353280584;0,458122395
0,579626208;0,10168827;-0,233917862;0,167975303;0,305407552
0,589646208;0,044070684;-0,181177439;-0,211568635;0,282008469
0,599667208;-0,110024718;-0,030102928;-0,77960517;0,787905988
0,609687208;-0,186224463;0,19083587;-1,017950544;1,0522933
0,619708208;-0,238958308;0,307791877;-0,991522298;1,065341908
0,629729208;-0,100694828;0,240772261;-0,857482481;0,896318546
0,639749208;0,131267214;-0,167538516;-0,663744346;0,697034284
0,649770208;0,08334877;-0,40767343;-0,708841581;0,82194953
0,659790208;-0,223542928;-0,282324037;-0,981313645;1,045301283
0,669811208;-0,942373673;0,259863127;-0,862505239;1,303653433
0,679831208;-0,311732864;-0,180353858;-0,486779534;0,605523911
0,689852208;-0,073329493;-0,237991617;-0,574994722;0,626606858
0,699872208;0,102483893;-0,286840719;-0,376926139;0,484617231
0,709893208;0,515574586;-0,420240266;-0,188280344;0,69128035
0,719913208;0,691722103;-0,61487858;-0,134512857;0,935226628
0,729934208;0,778130648;-0,658357598;0,01869004;1,01944659
0,739955208;0,751543797;-0,789158058;0,387420137;1,156582415
0,749975208;0,320791553;-1,14522484;1,214618134;1,699924812
0,759996208;0,529603993;-0,923282953;1,455954943;1,803534474
0,770016208;0,57691619;-0,787497742;1,626973722;1,8973741
0,780037208;0,644379099;-0,686312844;1,498991035;1,770091485
0,790057208;0,509791543;-0,533166372;1,173480633;1,386077413
0,800078208;0,293964564;-0,189586612;0,799419045;0,872599025
0,810098208;0,163520382;-0,005654842;0,469372373;0,497072748
0,820119208;0,06835439;0,131083758;0,316445464;0,349274971
0,830140208;-0,027790354;0,18943897;0,203885978;0,279694331
0,840160208;-0,186186566;0,164599998;0,058390296;0,255280283
0,850181208;-0,474909393;0,24092575;-0,107317457;0,543232166
0,860201208;-0,363305123;0,015327306;-0,068163332;0,369961861
0,870222208;-0,175401998;-0,299263421;-0,138545682;0,373522907
0,880242208;-0,334115238;-0,35381765;-0,377368189;0,615813829
0,890263208;-0,469933486;-0,230315393;-0,632592135;0,821008813
0,900283208;-0,518927598;-0,020571674;-0,809554608;0,9618148
0,910304208;-0,467309767;0,112046978;-0,869347651;0,993326876
0,92032375;-0,346627695;0,052362109;-0,858265423;0,927098747
0,93034475;-0,192597197;-0,006162088;-0,813771036;0,836274447
0,94036575;-0,047038292;0,031167706;-0,751192964;0,753309297
0,95038575;0,084229141;0,013305047;-0,604543626;0,610528106
0,96040675;0,166351897;-0,063248162;-0,401916554;0,439556822
0,97042675;0,157109203;-0,135130908;-0,141684467;0,251034165
0,98044775;0,020535129;-0,098654807;0,010233212;0,101287616
0,99046775;-0,134245347;0,080614393;-0,023757822;0,15838222
1,00048875;-0,224121437;0,305194836;-0,0862055;0,388337089
1,01050875;-0,247352352;0,4190296;0,080081711;0,493134943
1,02052975;-0,286172601;0,466839944;0,278904585;0,614509608
1,03055075;-0,229024912;0,381820843;0,385583526;0,588994247
1,04057075;-0,079989983;0,278529194;0,386748877;0,483271769
1,05059175;0,066357712;0,23576032;0,375469598;0,448289742
1,06061175;0,273536147;-0,019788147;0,389400004;0,476283485
1,07063275;0,842883226;-0,704904651;0,330634317;1,147458824
1,08065275;0,751954272;-1,02058413;0,291191924;1,300699784
1,09067375;0,184566339;-0,706568769;0,370618747;0,818939811
1,10069375;0,229316396;-0,438679168;0,355651045;0,609518735
1,11071475;0,382469811;-0,221602457;0,249596002;0,507630741
1,12073475;0,301270916;0,018554385;0,194824548;0,359256224
1,13075575;0,053627373;0,292254948;0,195386465;0,355618785
1,14077675;-0,36312978;0,691553119;0,013442749;0,781210382
1,15079675;-0,678509004;0,728988163;-0,195511596;1,014900485
1,16081775;-0,628465609;0,508821782;-0,455060728;0,927873318
1,17083775;-0,402986156;0,374107781;-0,636232612;0,840919978
1,18085875;-0,310792449;0,281356907;-0,685977799;0,803939796
1,19087875;-0,324412916;0,185868952;-0,634345715;0,736332462
1,20089975;-0,268996332;0,01721011;-0,509962574;0,576816298
1,21091975;-0,192922266;-0,066708544;-0,42037329;0,467314384
1,22094075;-0,224519706;-0,054072711;-0,373737652;0,439332208
1,23096075;-0,230975543;-0,086880269;-0,359386831;0,435955017
1,24098175;-0,15201964;-0,123372157;-0,25449129;0,321086401
1,25100275;0,011306688;-0,114674424;-0,155855779;0,193827471
1,26102275;0,113071044;-0,066708544;0,049138246;0,140177239
1,27104375;0,117750717;-0,081942295;0,018788273;0,144681617
1,28106375;0,011575514;0,026600738;-0,084920282;0,089738766
1,29108475;0,036595749;0,075715595;-0,086447575;0,120603829
1,30110475;0,059262408;0,049275071;-0,025135426;0,08106698
1,31112575;0,011469021;0,035408984;0,045784868;0,059004989
1,32114575;0,04543166;-0,004076679;0,013804107;0,047657196
1,33116675;0,105880431;-0,010486397;-0,05793012;0,121146725
1,34118675;0,138327946;-0,035781451;-0,07973848;0,163625053
1,35120775;0,206920939;-0,051958943;-0,078113539;0,22719536
1,36122875;0,184419464;-0,010967622;0,015339586;0,185381041
1,37124875;0,076756912;-0,004280162;0,035611297;0,084723714
1,38126975;0,087207019;-0,062467559;-0,079881737;0,133747344
1,39128975;0,154357613;-0,095019009;-0,119526443;0,217120831
1,40131075;0,139885717;-0,043001009;-0,152372008;0,211268383
1,41133075;0,104972066;-0,023166668;-0,179966188;0,209627427
1,42135175;0,094172003;-0,03504938;-0,094907327;0,138218037
1,43137175;0,103702014;-0,029527854;-0,083983558;0,136672016
1,44139275;0,134637878;-0,01658972;-0,048445936;0,144047165
1,45141275;0,107786769;-0,045969055;-0,097774801;0,152614067
1,46143375;0,027108496;-0,03264559;-0,135946594;0,142415173
1,47145375;-0,035295182;-0,011742963;-0,09879631;0,105566841
1,48147475;-0,032599104;-0,005903349;-0,04486627;0,055772156
1,49149575;0,010969961;0,001563545;-0,01613773;0,019575778
1,50151575;0,037621022;0,001285218;-0,003473246;0,037802864
1,51153675;0,022982335;0,02334267;0,008986586;0,033968024
1,52155675;-0,059726823;0,058169271;-0,012944566;0,084371317
1,53157775;-0,079093605;0,070597528;0,073031139;0,128737549
1,54159775;-0,034893698;0,047105754;0,124543939;0,137650699
1,55161875;0,025893444;0,042022185;0,076912521;0,091388568
1,56163875;-0,052482415;0,0548118;0,022952076;0,079281366
1,57165975;-0,052458734;0,025072276;0,063668577;0,086221955
1,58167975;0,045132757;-0,033413914;0,107880544;0,121620998
1,59170075;0,059893907;-0,058318375;0,051288267;0,098075478
1,60172175;-0,005987805;-0,092500028;-0,064027011;0,112656856
1,61174175;-0,08808549;-0,08582777;-0,156926989;0,199377881
1,62176275;-0,097516756;-0,029817291;-0,154033787;0,184729521
1,63178275;-0,118134039;-0,078743284;-0,078739775;0,162345644
1,64180375;-0,046269017;-0,116357837;-0,096330539;0,157985889
1,65182375;0,006564194;-0,104593239;-0,145306233;0,179155618
1,66184475;0,046673828;-0,087483117;-0,089750667;0,133742006
1,67186475;0,00433169;-0,028784088;-0,02069505;0,035715156
1,68188575;-0,117592367;0,04326004;-0,007079224;0,125497057
1,69190575;-0,176160235;0,019765343;-0,032586533;0,180235899
1,70192675;-0,075688369;-0,035910675;-0,019227984;0,085953599
1,71194675;0,06483601;-0,072210774;0,023190057;0,099779171
1,72196775;0,053159998;-0,032778906;0,049728815;0,079833559
1,73198875;-0,055873654;0,009079556;0,069189518;0,089395151
1,74200875;-0,125802443;-0,031023572;0,044618348;0,137038366
1,75202975;-0,06742132;-0,052897421;-0,02418233;0,089042443
1,76204975;-0,041712173;-0,033677039;-0,034044244;0,063506368
1,77207075;-0,053258889;-0,057023801;-0,03753854;0,086587326
1,78209075;-0,018611359;-0,072478577;-0,020827782;0,07767447
1,79211175;-0,040485975;-0,028712752;0,012453985;0,05117263
1,80213175;-0,031228627;-0,008165637;0,037198232;0,049250515
1,81215275;0,00441589;0,00157524;0,057137237;0,057329271
1,82217275;0,001245676;-0,070871762;0,080723151;0,107427117
1,83219375;0,037459566;-0,093820914;0,067420151;0,121453941
1,84221475;0,057469176;-0,080858222;0,085373442;0,130879268
1,85223475;0,011279681;-0,024425574;0,053638848;0,060008049
1,86225575;-0,019774114;0,004218766;0,015941849;0,025747934
1,87227575;0,036236511;-0,001284633;-0,038281136;0,052727416
1,88229675;0,08841816;-0,053102074;-0,003898923;0,103212416
1,89231675;0,085922605;-0,09170773;0,054038798;0,136796175
1,90233775;0,071670674;-0,106152692;-0,025082216;0,130515122
1,912357208;0,055041668;-0,096748615;-0,141057646;0,179686224
1,922378208;0,035244641;-0,080914355;-0,184601861;0,204614673
1,932398208;0,000262467;-0,072141193;-0,117813209;0,138146201
1,942419208;0,027115074;-0,060320461;-0,058281537;0,088150569
1,952439208;0,081834305;-0,076621329;-0,016733562;0,113347667
1,962460208;0,093351931;-0,049021302;0,040151076;0,112826326
1,972481208;0,078374946;-0,028109905;0,070406908;0,109040963
1,982501208;0,070088966;-0,038855333;0,071461746;0,107373093
1,992522208;0,060434409;-0,024731968;0,050308274;0,082431247
2,002542208;0,00176659;-0,02268135;0,031429369;0,038799094
2,012563208;-0,018760134;-0,028426239;0,058089164;0,067337543
2,022583208;-0,045679289;0,005139703;0,082238749;0,094213725
2,032604208;-0,034777996;-0,005184141;0,055561413;0,065752984
2,042624208;0,015242412;-0,022684858;0,003345777;0,027534127
2,052645208;0,003223058;-0,014057291;0,072468637;0,073889775
2,062665208;-0,044341373;-0,004443299;0,068012474;0,081311726
2,072686208;-0,088713006;0,015614405;-0,028023366;0,094335126
2,082707208;-0,078211297;0,001558283;-0,048271104;0,09192135
2,092727208;-0,047119934;-0,061240813;-0,004260281;0,077387824
2,102748208;-0,02991388;-0,019457195;-0,021705449;0,041767801
2,112768208;-0,056247072;0,004464934;-0,073959677;0,093025279
2,122789208;-0,067009493;-0,047109262;-0,035768588;0,089380908
2,132809208;-0,050231018;-0,056160752;0,039889705;0,085254758
2,142830208;-0,069261987;-0,009455532;0,034318478;0,07787418
2,152850208;-0,064301867;-0,011451772;-0,058046479;0,087380015
2,162871208;-0,099304506;-0,04946686;-0,049549305;0,121505098
2,172891208;-0,155494275;-0,022428165;0,034345375;0,160813858
2,182912208;-0,141080961;-0,001440169;0,094710276;0,169929244
2,192932208;-0,091727501;-0,05043282;0,067755781;0,124692621
2,202953208;-0,065308721;-0,099602056;-0,041058564;0,125982555
2,212974208;0,003525031;-0,08541788;-0,120879489;0,148055702
2,222994208;0,11863478;-0,089416791;-0,16074756;0,218882049
2,233015208;0,223016277;-0,148081906;-0,230603076;0,353330283
2,243035208;0,341305632;-0,151114857;-0,276728836;0,4646548
2,253056208;0,42278238;-0,092052716;-0,319493033;0,537860987
2,263076208;0,34050566;-0,093744316;-0,385833787;0,523067694
2,273097208;0,163273776;-0,039541796;-0,452632964;0,482802733
2,283117208;-0,018342606;0,070346682;-0,441968812;0,447907956
2,293138208;-0,112083961;0,146500234;-0,376794577;0,419522688
2,303158208;-0,168763873;0,141844681;-0,25128994;0,334286991
2,313179208;-0,215125277;0,205933088;-0,115752066;0,319508782
2,323199208;-0,270439937;0,250564885;-0,058613074;0,373304184
2,333220208;-0,316007471;0,218781175;0,006548882;0,384407092
2,343241208;-0,3173554;0,210896789;0,192559336;0,426932084
2,353261208;-0,283912397;0,249236982;0,327209018;0,49979102
2,363282208;-0,197447828;0,21188263;0,505253227;0,582375065
2,373302208;-0,214487528;0,126388736;0,594704517;0,644711156
2,383323208;-0,15533841;0,114562742;0,447258203;0,487128878
2,393343208;-0,148518108;0,08198498;0,272273843;0,320799331
2,403364208;-0,225894404;0,045612375;0,158571226;0,279738457
2,413384208;-0,281331472;0,063965616;0,049255775;0,292686058
2,423405208;-0,362933386;0,046186572;-0,039150617;0,367949199
2,433425208;-0,480934218;0,050162678;-0,099979202;0,493771058
2,443446208;-0,589832982;0,064716983;-0,046526295;0,595194028
2,453466208;-0,54282283;0,046134531;0,011840612;0,544908451
2,463487208;-0,469407419;0,048198014;0,068372662;0,476803099
2,473507208;-0,517011064;-0,008426422;0,246291155;0,572739712
2,483528208;-0,454317108;-0,125001191;0,290242921;0,553416919
2,493549208;-0,302152091;-0,147473211;0,231379586;0,408143047
2,503569208;-0,213808995;-0,166771946;0,119441659;0,296299643
2,513590208;-0,194853638;-0,230575594;0,079360165;0,312139521
2,523610208;-0,044905575;-0,312618461;0,048392726;0,319513175
2,533631208;0,045009463;-0,275947064;-0,083906375;0,29191251
2,543651208;0,154458057;-0,251574699;-0,268622841;0,399130745
2,553672208;0,229890318;-0,230524138;-0,224409705;0,395412003
2,563692208;0,219899163;-0,194535111;-0,077727038;0,303712106
2,573713208;0,162647393;-0,128776739;0,007870352;0,207604348
2,583733208;0,169877786;-0,062065855;0,057010353;0,189633364
2,593754208;0,248810556;-0,04573809;0,148458467;0,29332334
2,603774208;0,279484008;-0,079261932;0,295545176;0,414416114
2,613795208;0,247024597;-0,137390857;0,265053701;0,387493049
2,623816208;0,21654023;-0,145609703;0,074577727;0,271392141
2,633836208;0,180862457;-0,16360334;-0,023178948;0,244978662
2,643857208;0,170292719;-0,197033626;-0,038415037;0,263244326
2,653877208;0,158333939;-0,20686338;-0,157341557;0,304332811
2,663898208;0,117912776;-0,188220702;-0,316997441;0,387063087
2,673918208;0,107301067;-0,185457308;-0,359989094;0,418927297
2,683939208;0,143910996;-0,190299972;-0,266870431;0,357972458
2,693959208;0,175749743;-0,200888695;-0,137769756;0,300374342
2,703980208;0,155481009;-0,130107565;-0,021528279;0,203876898
2,714000208;0,168563642;-0,056768278;-0,011869848;0,178261696
2,724021208;0,104115778;-0,01099335;0,032784753;0,109707743
2,734042208;0,117054149;0,036829273;0,051145011;0,132943151
2,744062208;0,083932578;0,068162162;0,076451175;0,132421827
2,754083208;0,090250842;0,106580123;0,113810205;0,180159096
2,764103208;0,066094185;0,067024879;0,038100457;0,101550089
2,774124208;0,031071812;0,046806961;-0,027110031;0,062380308
2,784144208;0,093153034;0,089424393;0,00489295;0,129221325
2,794165208;0,148264796;0,128713589;0,080444239;0,212181321
2,804185208;0,144846733;0,123648146;0,105817646;0,217868801
2,814206208;0,092154421;0,16243682;0,058986127;0,195850762
2,824226208;0,067683549;0,151437038;0,055462595;0,17490094
2,834247208;-0,016918571;0,071971039;0,200486991;0,213684586
2,844267208;-0,021880701;0,08472674;0,148021095;0,171952406
2,854288208;-0,015084501;0,129019398;-0,009684743;0,130258748
2,864308208;-0,008491729;0,117798591;-0,115930991;0,165495052
2,874329208;-0,065865778;0,099045401;-0,099861673;0,155308229
2,884350208;-0,089208813;0,117582829;0,04154856;0,153330417
2,894370208;-0,106781377;0,108089874;0,151836403;0,21480218
2,904391208;-0,1397596;0,093066038;0,214824949;0,27266058
2,914412125;-0,080392308;0,02277432;0,307588102;0,318735052
2,924433125;-0,001582366;-0,020369945;0,423886882;0,42437899
2,934453125;-0,003127566;-0,055453824;0,446081159;0,449525648
2,944474125;-0,015320034;-0,072287958;0,379963768;0,387082313
2,954494125;0,072935098;-0,082845106;0,284868745;0,30550457
2,964515125;0,061210115;-0,081021359;0,139901066;0,172868294
2,974535125;-0,015130694;-0,060524529;-0,034407356;0,071246212
2,984556125;-0,082913481;-0,094479895;-0,327749301;0,351028062
2,994576125;-0,082844119;-0,074896401;-0,537504714;0,548984459
3,004597125;-0,088376645;-0,1336042;-0,678060669;0,69672576
3,014618125;-0,048595076;-0,158319796;-0,693930012;0,713418181
3,024638125;-0,045993285;-0,081494399;-0,520615032;0,528958156
3,034659125;-0,013603364;-0,037929718;-0,302904482;0,30557297
3,044679125;0,005296627;-0,023208768;-0,125436809;0,127675739
3,054700125;0,020485464;-0,034154756;0,058554018;0,070815073
3,064720125;0,027429873;-0,074071943;0,171234541;0,188574438
3,074741125;0,084778889;-0,088227468;0,213249709;0,245859685
3,084761125;0,131157396;-0,115400063;0,164772198;0,240144362
3,094782125;0,102667861;-0,120148003;-9,53096E-05;0,158038733
3,104802125;0,027588771;-0,095018424;-0,175296017;0,201291666
3,114823125;-0,073612389;-0,048107967;-0,323315942;0,335061724
3,124843125;-0,171575434;0,025485089;-0,494170999;0,523729506
3,134864125;-0,263581555;0,072321872;-0,510380065;0,57895898
3,144884125;-0,324326853;0,083828022;-0,283147325;0,438619941
3,154905125;-0,375757792;0,11332898;0,041348585;0,394648048
3,164926125;-0,35357331;0,141756388;0,19851648;0,429555295
3,174946125;-0,333815203;0,089627291;0,266747054;0,436600082
3,184967125;-0,244926561;0,040104883;0,197775053;0,31735216
3,194987125;-0,152697625;0,011367572;0,098845426;0,182253133
3,205008125;-0,175665744;0,012877323;0,040315967;0,180692159
3,215028125;-0,230176741;0,019794579;-0,105774377;0,254089307
3,225049125;-0,195224899;-0,031147533;-0,235178522;0,307232595
3,235069125;-0,155422683;-0,021726499;-0,259231043;0,303032977
3,245090125;-0,151823576;0,036794189;-0,338039231;0,372390564
3,255110125;-0,144954267;0,023907511;-0,379400096;0,406851006
3,265131125;-0,09573606;-0,000605772;-0,273357332;0,289637689
3,275151125;-0,102317211;0,070179452;-0,067079258;0,141044652
3,285172125;-0,144455134;0,156374427;0,035117792;0,215762616
3,295192125;-0,183970325;0,120960181;0,110488402;0,246341496
3,305213125;-0,100609276;0,072863908;0,117792744;0,171191431
3,315234125;-0,015122471;0,086868575;0,084109274;0,121857328
3,325254125;0,024568392;0,068269751;0,018738572;0,074936632
3,335275125;0,071852413;0,038359489;-0,030767464;0,087068114
3,345295125;0,058437293;0,052844796;-0,064553261;0,101855845
3,355316125;-0,014812678;0,049009607;-0,126922587;0,136860148
3,365336125;-0,066506852;-0,001998578;-0,130927929;0,14686483
3,375357125;-0,023384989;-0,003033535;-0,131327879;0,133428152
3,385377125;0,0157251;0,062986207;-0,106998199;0,12515253
3,395398125;-0,030177188;0,092621065;-0,005317458;0,097558187
3,405418125;-0,04262368;0,078342749;0,059657387;0,107300365
3,415439125;0,004101603;0,082795404;0,013625767;0,084009307
3,425459125;-0,060433715;0,06853346;-0,01070976;0,091998739
3,435480125;-0,052723942;0,004661985;0,043576959;0,068560189
3,445501125;-0,051054123;-0,01038407;0,052640728;0,074063477
3,455521125;-0,085909595;-0,012187352;-0,094703259;0,128443362
3,465542125;-0,116687584;-0,027270244;-0,13664826;0,181748193
3,475562125;-0,057850232;-0,02320526;-0,153988763;0,166125472
3,485583125;-0,00941208;-0,016351739;-0,150759931;0,151935918
3,495603125;-0,001727962;-0,030307873;-0,16453714;0,167314146
3,505624125;0,025458083;-0,018443872;-0,108893867;0,113340922
3,515644125;-0,007676225;-0,010960606;-0,042153162;0,044226105
3,525665125;-0,061707933;-0,034545935;-0,066437234;0,097031936
3,535685125;-0,091617647;-0,035152876;-0,089906788;0,13308925
3,545706125;-0,084279172;-0,033346671;-0,111654922;0,143811685
3,555726125;-0,04715699;-0,04757587;-0,054015409;0,086051784
3,565747125;0,02729155;-0,021027757;-0,018984155;0,039336922
3,575767125;0,060104736;-0,015172355;0,007654005;0,062460895
3,585788125;0,089423296;-0,02470624;0,019309845;0,094761777
3,595809125;0,0688362;-0,023775364;-0,056730271;0,092314755
3,605829125;0,066106354;-0,027435721;-0,153550222;0,169412041
3,615850125;0,108710776;-0,055857282;-0,198884854;0,233437902
3,625870125;0,132818846;-0,066249538;-0,156331158;0,21556734
3,635891125;0,122022729;-0,054535811;-0,061560071;0,147150751
3,645911125;0,052906265;-0,03119548;0,018770732;0,064222825
3,655932125;0,073984308;-0,038874044;0,001838949;0,083595759
3,665952125;0,070423134;-0,022986574;0,027627509;0,07906377
3,675973125;0,060600068;0,014229199;-0,01279897;0,063550389
3,685993125;0,022995272;0,044901938;-0,079928514;0,094517374
3,696014125;0,03366052;0,032967187;-0,069346808;0,083838212
3,706034125;0,071991065;0,01911104;-0,050211795;0,089828557
3,716055125;0,076238337;0,027860228;-0,019870593;0,083566242
3,726075125;0,095958035;-0,000415152;-0,030591463;0,1007172
3,736096125;0,100283147;-0,009425712;-0,054130599;0,114348919
3,746117125;0,062333512;0,021703695;-0,097991733;0,118147775
3,756137125;0,021427341;0,022820513;-0,135739018;0,139301787
3,766158125;0,009904854;-0,012983158;-0,11269748;0,113874451
3,776178125;0,034014642;0,014228615;-0,092647378;0,099714522
3,786199125;0,034686085;0,019592265;-0,116291764;0,122925814
3,796219125;-0,037970722;0,044783825;-0,183796699;0,192947126
3,806240125;-0,02557404;0,035983765;-0,147511802;0,153975955
3,816260125;0,04079617;0,020900872;-0,035087387;0,057726066
3,826281125;0,104376088;0,075489893;-0,035012543;0,133487714
3,836301125;0,072024687;0,096685465;0,007013735;0,120767658
3,846322125;0,031046595;0,043882184;0,054396647;0,076475698
3,856342125;0,059697367;0,021470976;-0,000700496;0,063445009
3,866363125;0,019541468;0,02398294;-0,045425849;0,054959604
3,876383125;-0,000853328;0,019685236;-0,026454558;0,032986063
3,886404125;-0,033146477;0,02019102;0,084447243;0,092939244
3,896425125;-0,019419846;0,053360521;0,041897639;0,07056832
3,906445125;0,001310434;0,073591887;0,017908852;0,075750974
3,916465708;0,001980013;0,013333406;0,038216232;0,040523827
3,926485708;0,011452722;-0,017275599;0,035793146;0,04136134
3,936506708;-0,036110138;0,031431708;0,025992628;0,054474866
3,946526708;-0,061216474;0,048947042;-0,066373499;0,102706918
3,956547708;-0,077534518;0,03154222;-0,150597378;0,172296499
3,966567708;-0,053029861;0,000642609;-0,145369967;0,154741741
3,976588708;-0,034805697;-0,028992834;-0,084657742;0,096015386
3,986608708;-0,067207751;-0,028779995;-0,041031082;0,083837459
3,996629708;-0,089567284;-0,062302083;-0,025254124;0,111989369
4,006649708;-0,061786285;-0,099755838;-0,075733722;0,139658043
4,016670708;-0,040605404;-0,105210121;-0,154598043;0,19135967
4,026690708;-0,070414875;-0,054790165;-0,200067161;0,219059549
4,036711708;-0,0946347;-0,013069112;-0,208899965;0,229707909
4,046732708;-0,041444334;-0,008628736;-0,136388644;0,142807388
4,056752708;0,009481041;-0,018393586;-0,019309845;0,028303432
4,066773708;0,027873238;0,001402162;0,024125612;0,036890766
4,076793708;0,0164135;0,015137272;-0,013835097;0,026266897
4,086814708;0,001669892;0,03328469;0,000812763;0,033336463
4,096834708;0,014532743;0,030838215;0,036345708;0,049831783
4,106855708;0,00519547;0,004614623;0,007865674;0,010495546
4,116875708;0,002806298;0,003679068;-0,016723037;0,017351392
4,126896708;0,004200859;-0,024051352;0,026886667;0,036318144
4,136916708;0,03199326;-0,035191467;0,017749808;0,050764788
4,146937708;0,064551434;-0,060266082;-0,029188716;0,09301005
4,156957708;0,089455748;-0,088077194;-0,119686072;0,173449356
4,166978708;0,074222363;-0,077014847;-0,101349204;0,147349608
4,176998708;0,011817588;-0,048955813;-0,084999804;0,09879926
4,187019708;0,031679849;-0,020722532;-0,11842015;0,124323643
4,197040708;0,057098865;-0,011582749;-0,10572526;0,120715662
4,207060708;0,096592567;-0,017386696;-0,05142977;0,110803621
4,217081708;0,128899092;-0,034672235;-0,015565288;0,134385334
4,227101708;0,133125313;0,000522156;-0,056544914;0,144637301
4,237122708;0,117521068;0,017468557;-0,134552034;0,179500979
4,247142708;0,091155607;-0,030936449;-0,121564783;0,155062584
4,257163708;0,093407077;-0,077973205;-0,090549982;0,151670703
4,267183708;0,109149828;-0,039587989;-0,135264809;0,178262342
4,277204708;0,073268097;-0,012656883;-0,136136629;0,155117995
4,287224708;0,025829783;-0,002397943;0,041750289;0,04915297
4,297245708;0,020273101;0,014744924;0,170721155;0,172551802
4,307265708;0,086411834;0,011121404;0,063130633;0,1075926
4,317286708;0,053490548;0,00476665;-0,092194803;0,106695086
4,327306708;0,026971525;0,000716284;-0,12462697;0,127514147
4,337327708;0,045598927;-0,011430137;-0,083645589;0,095950481
4,347348708;0,008116666;-0,034383382;-0,071192189;0,07947594
4,357368708;0,043563803;-0,052734284;-0,122527235;0,140326879
4,367389708;0,036172557;0,000705759;-0,129241008;0,1342095
4,377409708;-0,015337539;0,000950173;-0,137721224;0,138575895
4,387430708;-0,014443646;0,02143063;-0,290596093;0,291743003
4,397450708;-0,037107308;0,057322009;-0,505543249;0,510134042
4,407471708;0,005616397;-0,014325094;-0,417950789;0,418233923
4,417491708;0,031013851;-0,107796929;-0,206358765;0,234874385
4,427512708;0,084126596;-0,068963816;-0,121153724;0,162823576
4,437532708;0,079903225;-0,069199458;-0,03218249;0,110493453
4,447553708;0,027919724;-0,019825569;-0,085450625;0,09205636
4,457573708;-0,016557122;0,070048474;-0,230365679;0,241348861
4,467594708;-0,054508475;0,088379495;-0,323000777;0,339281021
4,477614708;-0,09697768;0,028083592;-0,408319255;0,420616182
4,487635708;-0,133455534;-0,053103828;-0,518953838;0,538464002
4,497656708;-0,231552663;-0,1425405;-0,392713037;0,477658831
4,507676708;-0,340606159;-0,061549546;-0,596464528;0,689616441
4,517697708;-0,259477577;0,025880946;-0,341323612;0,429534917
4,527717708;-0,025751284;-0,153056132;-0,048830683;0,162707541
4,537738708;-0,093706528;-0,150866935;0,384675454;0,423694407
4,547758708;-0,024843577;-0,004212334;0,95910592;0,959436872
4,557779708;0,269575426;0,016661056;1,240160526;1,269230724
4,567799708;0,376509159;-0,026846321;1,281822522;1,336244308
4,577820708;0,337177206;0,006128467;1,260001883;1,304350709
4,587840708;0,37776463;0,197823585;0,936552039;1,029062684
4,597861708;0,163768451;0,224933031;0,543553074;0,61062666
4,607881708;-0,019677562;0,122738904;0,145169992;0,191118737
4,617902708;-0,176065291;0,012163963;-0,107218639;0,206501296
4,627922708;-0,206059826;-0,07377432;-0,361350911;0,42246631
4,637943708;-0,126634904;-0,109993143;-0,496364874;0,523939862
4,647963708;-0,156283795;-0,147032331;-0,433613725;0,483801606
4,657984708;-0,136905099;-0,195823252;-0,334794027;0,411311065
4,668005708;-0,042071009;-0,165929947;-0,179746917;0,248216985
4,678025708;0,043001009;-0,105520608;-0,070235;0,133853056
4,688046708;-0,047786735;-0,061812086;-0,068102521;0,103644872
4,698066708;-0,1055649;0,000549638;-0,006838319;0,105787584
4,708087708;-0,06499626;-0,003994818;0,108776338;0,126778405
4,718107708;0,017011816;-0,030412538;0,229248276;0,231881643
4,728128708;0,032444372;-0,014597574;0,243207918;0,245796294
4,738148708;-0,066070979;-0,005851309;0,16781392;0,180447011
4,748169708;-0,099354719;0,005922645;-0,033292876;0,104951672
4,758189708;-0,111694829;0,012203724;-0,209144379;0,237415326
4,768210708;-0,080890747;-0,031755643;-0,251708601;0,266287351
4,778230708;-0,006805063;-0,064546829;-0,126318569;0,142017544
4,788251708;-0,045459982;-0,080740108;-0,011481593;0,093367028
4,798271708;-0,103856856;-0,076607881;-0,083547941;0,153737674
4,808292708;-0,100725087;-0,082925212;-0,14559567;0,195499957
4,818313708;-0,090755511;-0,100977321;-0,083786507;0,159540468
4,828333708;-0,007003795;-0,063626477;-0,061943648;0,089075234
4,838354708;0,021261207;-0,068998314;-0,047623233;0,086491494
4,848374708;-0,010499699;-0,071730718;0,0607859;0,094606898
4,858395708;-0,06185806;-0,069938546;0,050386627;0,106097276
4,868415708;-0,027048416;-0,069880659;-0,052224407;0,091336257
4,878436708;0,069827815;-0,088640866;-0,095841712;0,148049858
4,888456708;0,103415756;-0,129575468;-0,003000791;0,165812018
4,898477708;0,020840281;-0,130277719;0,146306691;0,197008247
4,908497708;-0,068265439;-0,063000825;0,113630111;0,146768785
4,918519083;-0,180827191;-0,055384242;-0,014331526;0,18966096
4,928539083;-0,117256774;-0,013809369;-0,145030829;0,18701281
4,938560083;-0,003232048;0,009759003;-0,160944611;0,161272602
4,948580083;0,070472251;-0,08373973;-0,134589456;0,173473347
4,958601083;0,008244062;-0,062482177;-0,153056717;0,165524456
4,968621083;-0,038064351;-0,007941104;-0,101860836;0,109030206
4,978642083;-0,044283595;0,043542461;-0,04634854;0,077493031
4,988663083;-0,032191115;0,006277571;0,007799016;0,033712022
4,998683083;-0,088496074;0,030052934;0,094047786;0,132588537
5,008704083;-0,130523594;0,040451038;0,084799245;0,160821662
5,018724083;-0,106630556;0,010518556;-0,016489733;0,108409532
5,028745083;-0,022599635;-0,014107577;-0,102399949;0,105808869
5,038765083;-0,107139702;-0,138628128;-0,25718101;0,311189243
5,048786083;-0,097558016;-0,135940163;-0,197597882;0,258925119
5,058806083;0,138150118;-0,05483168;-0,060309936;0,160403418
5,068827083;-0,016289393;-0,175308296;-0,005125085;0,176138041
5,078847083;-0,426296885;-0,450934932;-0,169788525;0,643350208
5,088868083;-0,141809378;0,19400009;-0,045547471;0,244582311
5,098888083;0,086503343;0,127127824;-0,006866385;0,153920301
5,108909083;-0,001322202;-0,11565968;0,063266873;0,131839323
5,118929083;-0,131648891;-0,149146099;0,08345614;0,215733439
5,128950083;-0,072599468;-0,031586074;-0,098568853;0,126428563
5,138970083;-0,020389387;0,017488437;-0,236070807;0,237594189
5,148991083;0,048804151;0,00014735;-0,037809851;0,061736955
5,159012083;0,159004359;-0,044754589;0,15018281;0,223249268
5,169032083;0,191231945;-0,055093635;0,252109135;0,321191503
5,179053083;0,040573756;0,03791627;0,286986607;0,292310085
5,189073083;-0,067716166;0,180415839;0,185136296;0,267227997
5,199094083;0,011079012;0,210879248;0,080975751;0,226163379
5,209114083;0,098113282;0,069598238;0,123096169;0,172112747
5,219135083;0,12078111;-0,027222297;0,085137799;0,15025836
5,229155083;0,058137111;-0,018101225;-0,037187122;0,07134746
5,239176083;-0,014442915;-0,045401291;-0,132143565;0,140469914
5,249196083;-0,165913721;-0,022742161;-0,149700415;0,224621421
5,259217083;-0,139928402;-0,015599202;-0,139961293;0,198525707
5,269237083;-0,002599087;-0,009685328;-0,045178512;0,046278059
5,279258083;0,018387885;-0,034679251;0,003082652;0,039373437
5,289278083;-0,000600801;0,001660609;0,015489274;0,015589618
5,299299083;-0,028337215;0,074735602;0,013704704;0,081093939
5,309319083;0,030118496;0,092697079;-0,061185265;0,115080445
5,319340083;-0,005716457;0,041970145;-0,074963644;0,086102954
5,329361083;-0,106693998;0,01179208;-0,09500439;0,143347468
5,339381083;-0,090300232;-0,019316277;-0,115956134;0,148233179
5,349402083;0,0165398;-0,045010697;-0,1802451;0,186514943
5,359422083;0,079694187;-0,072237672;-0,138112403;0,17505565
5,369443083;0,082699291;-0,06811363;-0,056126838;0,12094983
5,379463083;0,119007576;-0,087964928;0,061074752;0,160096087
5,389484083;0,095451337;-0,113199756;0,187510266;0,238925181
5,399504083;0,065532669;-0,123121312;0,174405486;0,223317401
5,409525083;-0,016094534;-0,128749841;-0,049185609;0,138761593
5,419545083;-0,129982946;-0,082429953;-0,316555392;0,35199088
5,429566083;-0,187580359;0,028121014;-0,412498845;0,454018149
5,439586083;-0,281080773;0,10582057;-0,319279025;0,43834175
5,449607083;-0,290203818;0,131148369;-0,241910421;0,399923496
5,459627083;-0,2023581;0,044380952;-0,175401267;0,271448106
5,469648083;0,008122587;0,081968608;-0,058266919;0,100895307
5,479668083;0,16295905;0,096729319;0,075568246;0,204016599
5,489689083;0,179824759;0,083920993;0,092008277;0,218735457
5,499710083;0,076788486;0,070530869;0,03033594;0,108587957
5,509730083;-0,060003908;0,040131195;-0,062459958;0,095457991
5,519751083;-0,065769628;0,038795691;0,117889808;0,140459091
5,529771083;0,40551398;-0,037116956;0,346307194;0,534553954
5,539792083;-0,046689359;-0,067637667;0,247674022;0,260954347
5,549812083;0,003814577;0,102156705;-0,090775684;0,136714184
5,559833083;0,075422869;0,135019811;-0,152625192;0,217286465
5,569853083;0,041348147;0,024314477;0,082832242;0,095718563
5,579874083;0,148175242;-0,035525343;0,121706285;0,195013775
5,589894083;0,043996789;-0,028808647;0,174601952;0,182349931
5,599915083;0,10673734;0,064840944;0,1396204;0,18732609
5,609935083;0,160594509;0,053856949;0,16130246;0,233900943
5,619956083;0,03644628;-0,014734399;0,131587495;0,137334274
5,629976083;-0,014552916;0,071468178;0,115192487;0,136340738
5,639997083;0,02274026;0,051814517;0,011097431;0,057662956
5,650017083;-0,005700889;0,040145813;-0,014368363;0,043019023
5,660038083;-0,058391903;0,028278889;-0,010665906;0,065750069
5,670058083;0,029221972;-0,00542797;0,028105811;0,040906273
5,680079083;0,088215042;-0,005061935;0,193788421;0,212982321
5,690100083;0,106725061;0,015412676;0,219599785;0,244646388
5,700120083;0,062505785;0,012385572;0,155828297;0,1683533
5,710141083;0,119641195;-0,035950436;0,126734891;0,177955562
5,720161083;0,157118047;-0,090150617;0,070893981;0,194522932
5,730182083;0,111286401;-0,159964617;0,048645326;0,200847479
5,740202083;-0,011018859;-0,150685671;0,069160282;0,166164772
5,750223083;-0,212253709;-0,001852983;0,088002934;0,229781607
5,760243083;-0,242358245;0,131771098;-0,06224478;0,282799494
5,770264083;-0,137744686;0,129282523;-0,094824296;0,211374588
5,780284083;-0,040899739;0,051955435;-0,043674608;0,079244099
5,790305083;-0,054525944;-0,029785132;-0,065188853;0,090054535
5,800325083;-0,046327782;-0,016480962;-0,101686589;0,112951528
5,810346083;0,069177385;-0,050832185;0,031819378;0,091552687
5,820366083;0,120531361;-0,135974661;0,261980404;0,31882699
5,830387083;0,07225726;-0,199107049;0,59869758;0,635061824
5,840407083;0,205932211;-0,229244767;0,722787775;0,785737493
5,850428083;-0,188328145;-0,092446234;0,335357698;0,395573738
5,860448083;-0,272200752;0,120268455;-0,273581865;0,404233581
5,870469083;-0,202436307;0,24808625;-0,508492584;0,600909273
5,880490083;-0,365640282;0,308865134;0,069659634;0,483676494
5,890510083;-0,29921445;0,127844108;0,270299238;0,423007188
5,900531083;-0,082431561;-0,07871931;0,138260922;0,179186425
5,910551083;0,185715755;-0,297430903;0,068750392;0,357326322
5,920571583;0,262197628;-0,636921998;0,199633883;0,717126847
5,930591583;-0,100318048;-1,433752481;0,098201648;1,440608708
5,940612583;-0,530630143;-1,39019891;0,765404622;1,673339653
5,950632583;-0,591797427;-1,499122598;1,405159011;2,138238669
5,960653583;-1,085304182;-2,0127543;1,41621902;2,689747451
5,970673583;-1,587195845;-2,16631797;0,872995144;2,823870521
5,980694583;-1,580287067;-1,769987846;0,270924305;2,388213594
5,990714583;-0,958277662;-1,449043534;-0,740997759;1,888677029
6,000735583;-0,153819779;-1,210701084;-1,433474153;1,882632675
6,010755583;0,791690926;-0,769029896;-1,583264616;1,930002162
6,020776583;1,746615063;-0,225597274;-1,670714988;2,427518667
6,030796583;2,04864334;0,21008695;-1,468604225;2,529401991
6,040817583;1,62011143;0,297553695;-0,938717263;1,895913855
6,050837583;0,979499838;0,025230151;-0,137980841;0,989492398
6,060858583;0,617337919;-0,002582715;-0,006104493;0,617373502
6,070879583;0,717400151;0,299113732;-0,438509599;0,892425162
6,080899583;0,816047941;0,699013581;-0,264586508;1,106598504
6,090920583;0,845627251;1,147799662;0,235165658;1,444933354
6,100940583;0,803424388;1,048799284;0,883903125;1,58957712
6,110961583;0,354244789;0,768079723;1,678791747;1,879834451
6,120981583;-0,423415889;0,94037378;1,667479139;1,960630138
6,131002583;-0,379127616;0,87977616;0,616683615;1,139316691
6,141022583;-0,286504504;0,748512601;-0,197679743;0,825489688
6,151043583;-0,378397883;1,007141381;0,338768964;1,127955287
6,161063583;-0,567997651;0,700299384;2,104443319;2,28948078
6,171084583;-0,99244879;0,38195299;4,802169111;4,918502909
6,181104583;-0,420101102;-0,172753063;-0,290168077;0,539004703
6,191125583;-0,503023391;0,180063837;-2,031495211;2,100578089
6,201145583;-0,003598669;-0,828811828;-0,446071218;0,941234046
6,211166583;0,219068566;-0,56929778;-0,008619381;0,610053516
6,221186583;0,293713244;0,810230547;0,250117573;0,897384983
6,231207583;0,124242808;1,057843173;0,188563934;1,081676851
6,241227583;-0,410371335;0,161438701;-0,050184898;0,443830611
6,251248583;-0,411691637;-0,33917593;-0,017756824;0,533709303
6,261269583;-0,168824611;-0,304509543;-0,205150731;0,404122052
6,271289583;0,212825201;-0,293736048;0,317373125;0,481976278
6,281310583;0,060627733;-0,044989647;1,092013716;1,094620366
6,291330583;-0,459050575;-0,312718449;1,43435182;1,538143492
6,301351583;-0,498777435;-0,38550342;1,136030386;1,299213937
6,311371583;-0,153124545;-0,25100635;0,754544588;0,809807909
6,321392583;0,253114271;-0,353975233;0,545434708;0,697756634
6,331412583;0,389829774;-0,751875334;0,55677129;1,013547256
6,341433583;0,051176293;-0,604590404;1,032546948;1,197623384
6,351453583;-0,137623576;0,476307755;2,948196537;2,989593977
6,361474583;0,973959017;1,104180602;2,22093418;2,664649996
6,371494583;-0,685654448;-0,134971864;1,990154519;2,109278178
6,381515583;-1,239552416;-0,653598257;0,234979132;1,420878624
6,391535583;-1,698274085;-1,095131451;-0,732348558;2,149367854
6,401556583;-1,496643378;-0,593318142;-2,017606027;2,581221009
6,411576583;-1,258390975;0,109058173;-0,194471961;1,277990952
6,421597583;-0,461950502;0,675552213;-0,138677244;0,830060502
6,431617583;-0,671508279;0,430559725;-1,709657591;1,886593258
6,441638583;-0,984591594;-0,280778033;-1,095089352;1,499158964
6,451659583;-0,621334491;-0,242368843;0,403923245;0,779713533
6,461679583;-0,026165121;0,204308147;-0,231877184;0,310150707
6,471700583;0,299586772;-0,163681108;0,063545347;0,34724883
6,481720583;0,729284032;-0,052215051;-0,078363873;0,735338363
6,491741583;0,535989701;-0,471816509;0,659709109;0,972168651
6,501761583;0,187592711;-0,703679659;1,724322846;1,871802705
6,511782583;0,282449167;-0,143850276;1,530226861;1,562710684
6,521802583;-0,409380525;0,435453844;0,356760846;0,696053709
6,531823583;-0,785726035;0,804674522;-0,474217376;1,220552583
6,541843583;-0,93009262;0,746357317;-0,651131902;1,358710521
6,551864583;-1,386464878;0,586980345;-0,153770114;1,513431872
6,561884583;-1,886575479;0,470188644;-0,441170082;1,993708966
6,571905583;-1,826797054;0,146762189;-0,376540807;1,870964884
6,581925583;-1,667442302;-0,208719871;0,560276769;1,77139433
6,591946583;-1,603314718;-0,297898096;1,31657311;2,095883135
6,601966583;-1,388369901;-0,564542824;1,40103497;2,051628273
6,611987583;-1,240578017;-0,565000076;1,205756679;1,819919798
6,622007583;-1,205452623;-0,653184859;0,120749681;1,376352779
6,632028583;-1,187039741;-0,637817207;-0,627467051;1,486468646
6,642048583;-1,087903123;-0,097455543;-0,882227898;1,40405016
6,652069583;-1,009104291;0,461440625;-0,528401038;1,228994132
6,662089583;-0,376009296;0,846051759;0,74533537;1,188575359
6,672110583;0,331100925;0,954981878;0,568530333;1,159674502
6,682131583;-0,014092959;0,834159692;0,113739747;0,841996279
6,692151583;0,050329909;0,679683271;0,790313176;1,043598277
6,702172583;0,502166482;0,669124369;1,272164969;1,522597223
6,712192583;1,044949477;0,509072043;0,215028432;1,182079093
6,722213583;1,209383706;0,571912655;-0,710471785;1,514748557
6,732233583;1,249722478;0,539710869;-1,065515889;1,728704198
6,742254583;1,01129115;0,254380193;-0,927968912;1,395903067
6,752274583;1,012233721;-0,039621318;-0,850103002;1,322445488
6,762295583;1,061938562;-0,096481397;-0,833252496;1,353267118
6,772315583;0,849182358;-0,244974362;-0,867041217;1,23809676
6,782336583;0,863205151;-0,540723606;-1,052842341;1,464917113
6,792356583;0,975959934;-0,747188791;-1,182643512;1,705706469
6,802377583;0,845064749;-0,760013489;-1,326761006;1,747011649
6,812397583;0,532884829;-0,59475948;-1,479013731;1,680829169
6,822418583;0,111298826;-0,560510584;-1,602017513;1,700887902
6,832438583;0,006505612;-0,552630292;-1,408557998;1,513102176
6,842459583;-0,041004769;-0,381508017;-1,312055258;1,367010885
6,852479583;-0,018000069;-0,442585693;-1,279698521;1,35419142
6,862500583;0,180798832;-0,45817437;-1,205656691;1,302390121
6,872520583;0,285124269;-0,544062366;-1,256897596;1,398960784
6,882541583;0,35043299;-0,588057402;-1,448073481;1,601727691
6,892562583;0,367705665;-0,461435947;-1,202769628;1,339695998
6,902582583;0,434847488;-0,54155508;-0,946776481;1,174206092
6,912603583;0,42655789;-0,495588364;-0,980262315;1,178335125
6,922624125;0,360270345;-0,432075323;-1,077130506;1,215192961
6,932645125;0,390560092;-0,565130469;-0,909212652;1,13955135
6,942665125;0,370317616;-0,596325949;-0,709901389;0,998348515
6,952686125;0,455289938;-0,746031627;-0,520624095;1,017301118
6,962706125;0,145118537;-0,812195796;-0,333059742;0,889747263
6,972727125;-0,885345048;-0,561708679;-0,840975645;1,344095432
6,982747125;-1,128780423;-0,364629444;-0,694945966;1,37479081
6,992768125;-1,327844787;-0,357327442;-0,592729766;1,497392151
7,002788125;-1,280333821;-0,24989421;-1,032542563;1,663684451
7,012809125;-1,245459273;-0,446821416;-1,297425671;1,853140996
7,022829125;-1,018994856;-0,756317464;-1,389855094;1,882037143
7,032850125;-1,108350252;-1,030598656;-1,737032208;2,3038782
7,042870125;-1,131994053;-1,43037396;-2,425461305;3,034838174
7,052891125;-0,11942938;-1,438774654;-1,573424044;2,135415441
7,062911125;0,01042617;-1,776141456;-1,02478857;2,050604494
7,072932125;-0,286641621;-1,983073833;-2,532698071;3,229443414
7,082952125;-0,174256382;-1,849759655;-3,452238514;3,920449824
7,092973125;-0,275873389;-1,581026301;-3,770934863;4,098255731
7,102994125;-0,286043451;-1,421023677;-3,972593637;4,228785801
7,113014125;-0,270139024;-1,081985741;-4,151748816;4,298916895
7,123035125;-0,068732851;-0,966353543;-4,517538348;4,620250653
7,133055125;0,001782231;-0,968967834;-5,058123375;5,150098438
7,143076125;0,037107015;-1,105967512;-5,415920348;5,527814603
7,153096125;0,254522281;-1,444243555;-5,392919741;5,588756961
7,163117125;0,808459425;-1,88660413;-5,178035735;5,570003219
7,173137125;1,316723968;-2,338368782;-4,760767901;5,465038113
7,183158125;1,622312322;-2,591314069;-3,980775061;5,019300345
7,193178125;1,561038764;-2,240841903;-3,330183442;4,306777939
7,203199125;1,40531981;-1,848950985;-2,993843411;3,789015952
7,213219125;0,980485679;-1,924840828;-2,472043149;3,282889232
7,223240125;0,39013383;-2,449488099;-1,482479083;2,889626375
7,233260125;0,079787012;-2,955082219;0,040302519;2,956433862
7,243281125;-0,135236158;-3,170723439;2,999473695;4,366762919
7,253301125;-1,41689028;-1,90155663;5,612589108;6,093000261
7,263322125;-2,0367349;-1,644535249;3,70080102;4,533068875
7,273342125;-1,965204742;-2,115701548;2,562095532;3,860382913
7,283363125;-1,092511899;-2,062660285;5,172151682;5,674442944
7,293383125;-0,625076124;-0,503609574;4,09622658;4,174136432
7,303404125;1,008449988;-0,817691009;-0,137818142;1,305597106
7,313425125;2,247731093;-1,167006596;-2,577802908;3,613760824
7,323445125;1,760384964;-0,833413002;-3,400840611;3,919087817
7,333466125;1,147899064;-0,74184736;-4,037617598;4,262671186
7,343486125;0,647451079;-0,872912698;-4,051057423;4,194309923
7,353507125;0,018178409;-0,867125709;-3,488091593;3,594303884
7,363527125;-0,304846927;-0,877428503;-2,660536916;2,818025747
7,373548125;-0,350484445;-0,834863112;-1,870938416;2,078520223
7,383568125;-0,769383652;-0,797130445;-1,4367809;1,814306342
7,393589125;-1,472911284;-1,175939387;-1,361435433;2,325039254
7,403609125;-1,888691002;-1,610761732;-1,26512229;2,786079946
7,413630125;-1,76376407;-1,884838271;-1,291532993;2,886440104
7,423650125;-1,228347396;-1,996715972;-1,314321347;2,687592343
7,433671125;-0,830008754;-1,725318627;-1,109585184;2,212875544
7,443691125;-0,828796041;-1,355648882;-0,879200356;1,815951551
7,453712125;-1,256859589;-1,252402257;-0,736039905;1,920927427
7,463732125;-1,74746788;-1,331225647;-0,846708401;2,354298374
7,473753125;-2,077311653;-1,402725985;-1,029068001;2,709583888
7,483773125;-2,265354601;-1,488474818;-1,118089374;2,932151531
7,493794125;-2,434057297;-1,638614944;-1,18331258;3,163846159
7,503814125;-2,749732683;-1,879159455;-1,176684761;3,532259491
7,513835125;-3,208617489;-1,985463005;-1,028484887;3,910891293
7,523856125;-3,62140811;-1,986982697;-0,793148345;4,206159915
7,533876125;-3,822428952;-2,151518667;-0,396708439;4,404244913
7,543897125;-3,769769513;-2,562248145;-0,002444721;4,558100889
7,553917125;-3,600970337;-2,706756232;0,265737679;4,512663646
7,563938125;-3,481329873;-2,452054442;0,621550253;4,303318881
7,573958125;-3,058898948;-2,024535854;1,043892447;3,813832671
7,583979125;-2,689440873;-1,689147166;1,44618907;3,489666629
7,593999125;-2,481346654;-1,516928539;1,638756446;3,338214507
7,604020125;-2,495220927;-1,297420262;1,738511699;3,30633479
7,614040125;-2,463885114;-1,090308668;1,829575067;3,256815587
7,624061125;-2,007646757;-0,85616218;1,924757797;2,910043257
7,634081125;-1,519233511;-0,43651833;2,235338504;2,737764953
7,644102125;-1,123093421;0,035647258;2,68283118;2,90864104
7,654122125;-0,126868207;-0,0498557;2,764336689;2,767695514
7,664143125;1,740214409;-0,454089213;2,605319905;3,165791371
7,674163125;2,959737772;-0,293830773;2,495537846;3,882536972
7,684184125;3,180095356;0,211270427;2,413088597;3,997579048
7,694204125;2,722656566;0,570650241;2,370522037;3,654842705
7,704225125;1,425855816;0,392045285;2,179597582;2,63389634
7,714245125;-0,144685258;0,104399697;1,973642274;1,981690427
7,724266125;-1,369416736;0,036964928;1,928229289;2,365319597
7,734286125;-1,751099001;0,068821728;2,085985998;2,724412179
7,744307125;-1,173322173;0,134814281;2,454127865;2,723527747
7,754327125;-0,037278339;0,217730723;2,81378893;2,822446543
7,764348125;1,108526838;0,042400207;2,877282676;3,083729094
7,774369125;1,911912634;-0,282852625;2,841652082;3,436626556
7,784389125;2,006267983;-0,444878679;2,583979322;3,30151138
7,794410125;1,318715529;-0,448860779;2,099287244;2,519423263
7,804430125;0,065669494;-0,472984052;1,589815836;1,659982165
7,814451125;-1,177191861;-0,915814889;0,850352386;1,716856654
7,824471125;-1,93835959;-1,646601802;0,049820616;2,543819468
7,834492125;-2,263549565;-1,706097513;-0,044161699;2,834850193
7,844512125;-2,061859217;-1,43260438;0,129384849;2,514032454
7,854533125;-1,383758787;-1,44202249;0,095044152;2,000812493
7,864553125;-0,086933479;-2,012910859;0,241037432;2,029154159
7,874574125;1,284449676;-2,641015402;0,729079964;3,02594298
7,884594125;2,114081284;-2,964290414;1,711008736;4,022922847
7,894615125;2,573140338;-2,918440349;2,52177021;4,636558019
7,904635125;2,986006973;-2,742533006;2,511925253;4,769433237
7,914656125;2,845501304;-2,700797627;1,933609312;4,373789029
7,924675708;2,023964581;-3,070040817;1,07570934;3,831283575
7,934696708;1,677986001;-2,966309165;0,17302843;3,412413504
7,944716708;1,861799657;-2,270295498;-0,279582935;2,949356918
7,954737708;1,255496603;-2,022362298;0,137744029;2,38436457
7,964757708;0,731002529;-2,338411906;0,194054543;2,457680228
7,974778708;0,712238229;-2,687101986;0,248686248;2,790993592
7,984798708;0,923692843;-2,70660976;0,671764972;2,937722423
7,994819708;1,512434369;-2,605233366;1,106304238;3,209144384
8,004840708;2,248091866;-2,26459724;1,555904324;3,550092388
8,014860708;2,993368033;-1,899722943;1,906976414;4,025637649
8,024881708;3,357532623;-1,714605943;1,928046856;4,23441419
8,034901708;3,05991227;-1,492327694;1,344304115;3,660226578
8,044922708;2,471120458;-1,142908904;0,859628336;2,855107346
8,054942708;1,923902349;-0,894309268;0,409627204;2,160783137
8,064963708;1,373960023;-0,697584522;0,07246871;1,542608837
8,074983708;0,864461133;-0,27266546;-0,115490695;0,91377109
8,085004708;0,350777391;0,33571277;-0,329833834;0,586973764
8,095024708;0,20314572;0,805670157;-0,636890423;1,04690114
8,105045708;0,347317593;1,160292677;-0,889846308;1,502908865
8,115065708;0,452906613;1,579462317;-1,093931018;1,973958126
8,125086708;0,383705401;1,67993634;-1,303464822;2,160656493
8,135106708;0,219158905;1,51398008;-1,318760553;2,019726641
8,145127708;-0,115210614;1,383497563;-0,846194431;1,625848703
8,155147708;0,051622728;0,854597611;-0,360021254;0,928771924
8,165168708;0,85315788;0,35793716;0,107439664;0,931418628
8,175188708;1,525653169;0,476355848;0,630798209;1,718266239
8,185209708;2,135514838;0,533734868;1,058211547;2,442357102
8,195229708;2,598232495;0,383170381;1,265301214;2,915239064
8,205250708;2,544739827;-0,099256924;1,205829184;2,817725456
8,215270708;2,36343872;0,12669513;1,326184763;2,713053678
8,225291708;2,314920278;0,626516732;1,259680871;2,708906607
8,235312708;2,8409434;0,979947004;0,957217269;3,153968997
8,245332708;2,441346436;-0,154197801;0,64741892;2,530434872
8,255353708;1,854651436;-0,825186262;0,408407;2,070618408
8,265373708;1,898484503;-0,776670306;0,40190486;2,090212355
8,275394708;2,246965692;-1,163177108;0,497690438;2,578668567
8,285414708;2,160892339;-1,247342369;0,969367783;2,676750377
8,295435708;1,822967713;-0,928004872;1,396483498;2,476806509
8,305455708;1,817642069;-0,712707176;1,483010595;2,451753379
8,315476708;2,246392665;-0,691876177;1,353531021;2,712382509
8,325496708;2,550382975;-0,335610152;1,19863477;2,837924031
8,335517708;2,689198213;0,185754932;0,871073749;2,832853932
8,345537708;2,944977061;0,299720819;0,388996546;2,985639089
8,355558708;3,256278144;0,259645319;0,025119054;3,266709967
8,365578708;3,52331522;0,488915814;-0,215989714;3,563627418
8,375599708;3,455934831;1,055113546;-0,459481223;3,642509182
8,385619708;3,086379692;1,501543491;-0,800487916;3,524365668
8,395640708;2,6205443;1,731322548;-1,024376634;3,303646119
8,405660708;2,089315987;1,748300523;-1,129220134;2,94905648
8,415681708;1,478320543;1,538101891;-1,01748686;2,363571147
8,425701708;0,882003949;1,022873168;-0,801248127;1,570413655
8,435722708;0,41980611;0,382871588;-0,547970061;0,789366208
8,445742708;-0,335015636;-0,31069385;-0,205022677;0,500799803
8,455763708;-1,396143774;-0,710975669;0,433531718;1,625624062
8,465783708;-2,103280308;-0,722716147;1,297509432;2,574808228
8,475804708;-2,343594439;-1,020877368;1,605463131;3,018631703
8,485825708;-1,817557869;-1,535784347;1,492650168;2,808941917
8,495845708;-0,836546525;-1,449940205;1,427376531;2,199895554
8,505866708;0,182184622;-1,266599004;1,119707737;1,700355754
8,515886708;0,894146862;-0,891223547;0,791320066;1,489954854
8,525907708;0,807243789;-0,267156067;0,749760396;1,133647013
8,535927708;0,606762645;0,345493554;0,266350029;0,747307862
8,545948708;0,875394257;1,317312198;-0,288884759;1,607818688
8,555968708;1,0157631;1,590165207;-1,354358694;2,322646666
8,565989708;1,138430083;1,418939145;-2,481271517;3,076705981
8,576009708;1,365423673;1,406540416;-3,088670046;3,658226401
8,586030708;1,719100113;1,467615753;-3,507966864;4,173132243
8,596050708;1,912751709;1,495316353;-3,492874616;4,253793974
8,606071708;2,091247323;1,03294719;-3,320473555;4,057812205
8,616091708;1,965977159;0,380000605;-3,180577751;3,758396132
8,626112708;1,373465348;0,275354156;-2,721336265;3,060702214
8,636132708;0,459758965;0,474641006;-1,702664759;1,826398005
8,646153708;-0,463069074;0,328258594;-0,933372324;1,092415015
8,656173708;-1,102598931;0,057633958;-0,340959331;1,155551531
8,666194708;-1,677552137;-0,110988339;0,269475365;1,702679229
8,676214708;-2,057908253;-0,187521668;0,613392802;2,155551318
8,686235708;-2,458492227;-0,169397053;0,83696694;2,602574312
8,696255708;-2,916599354;-0,022216496;1,0257978;3,091812816
8,706276708;-3,113705485;-0,282657036;1,251220827;3,367582279
8,716297708;-2,649526024;-0,853390599;1,300993496;3,072596255
8,726317708;-0,872201092;-1,33671209;1,389465962;2,116163891
8,736338708;1,59688395;-1,446252366;1,447478235;2,595549556
8,746358708;2,946885592;-1,679651288;1,225530208;3,606561719
8,756379708;2,843754741;-2,23416526;0,880253878;3,721999775
8,766399708;1,735367067;-2,494842027;0,708820531;3,120602849
8,776420708;0,400146602;-2,50993486;0,797216399;2,663727519
8,786440708;0,626887591;-2,501908972;0,928140235;2,741164142
8,796461708;1,59743125;-2,151975335;0,97893412;2,85326067
8,806481708;1,798231652;-1,852638532;0,731396339;2,683439436
8,816502708;1,068348865;-1,89224757;0,33666192;2,198934154
8,826522708;-0,152205947;-1,987580282;0,107819441;1,996313367
8,836543708;-1,326359594;-1,85674854;-0,015041378;2,281878865
8,846563708;-1,285801553;-1,657062324;-0,046009109;2,097917543
8,856584708;0,284419094;-1,544290292;-0,063812419;1,571559338
8,866604708;1,392875766;-1,510044904;-0,089466785;2,056293465
8,876625708;1,141933735;-1,470333539;0,059722876;1,862648704
8,886645708;-0,265642515;-1,218203647;0,244185573;1,270516692
8,896666708;-1,739889303;-0,980528656;0,48245274;2,054607476
8,906686708;-2,516794814;-1,242791481;0,982622836;2,973942575
8,916707708;-3,108913107;-2,082435861;1,826587724;4,163928738
8,926727583;-3,04451012;-2,870524756;3,139578245;5,231243236
8,936748583;-1,561253942;-2,654992879;4,499689722;5,452862427
8,946769583;-0,126343127;-1,942922465;4,851408514;5,227530475
8,956789583;0,548583434;-2,120691562;4,297718123;4,82375969
8,966810583;0,638229436;-2,56888795;3,917581277;4,72799801
8,976830583;-0,254339848;-2,37889408;3,586376857;4,311139613
8,986851583;-1,41358251;-2,279046148;3,198286629;4,17388359
8,996871583;-1,507426813;-1,951524596;3,256095126;4,084475403
9,006892583;-0,193926415;-1,893616404;2,644931867;3,258689172
9,016912583;0,32796214;-2,682926782;1,573567593;3,127582174
9,026933583;0,803195177;-2,065305712;0,958301416;2,414322219
9,036953583;0,418177661;-1,833005628;-0,272755069;1,899783544
9,046974583;-2,274217225;-2,210148699;-1,438825671;3,482390066
9,056994583;-6,346753811;-2,752140858;-2,361953673;7,309882926
9,067015583;-10,41073709;-2,959651525;-3,597546208;11,40549528
9,077035583;-13,95238508;-0,437287239;-8,913481507;16,56231935
9,087056583;-13,71577049;3,324533862;-13,64466484;19,6303786
9,097076583;-7,11479845;2,971754677;-13,20094186;15,28779084
9,107097583;-3,001765219;-0,860540867;-14,42164987;14,75585002
9,117117583;-5,017777002;-1,530122488;-10,62792724;11,85209679
9,127138583;-5,037588539;1,950898359;-4,948469371;7,326025649
9,137158583;-2,91401313;2,161572955;-2,490610982;4,400796885
9,147179583;7,033235639;0,111868345;-2,822997125;7,579461119
9,157199583;20,05372775;-0,147010696;-0,875330522;20,07336076
9,167220583;13,93059134;2,637867261;3,33898584;14,5660065
9,177240583;7,588583717;2,166163604;2,409863273;8,251442818
9,187261583;4,524340999;-1,276900336;1,242794112;4,862578857
9,197281583;-1,299713833;-1,116147514;0,833519276;1,905202273
9,207302583;-2,886043559;0,70168342;-2,413461503;3,82706199
9,217323583;-2,216917436;0,535237164;-1,092073942;2,528601834
9,227343583;1,771770662;-2,851447338;0,548000759;3,40150379
9,237364583;1,280870011;-3,28267306;0,188120861;3,528733465
9,247384583;-0,549855788;-2,152905042;0,348751623;2,249215241
9,257405583;-2,368724018;-0,388370309;0,839223088;2,542829204
9,267425583;-4,439921823;2,203431417;1,63239643;5,2184992
9,277446583;-3,366219832;2,459175181;1,601808475;4,465956663
9,287466583;-6,308211889;2,882687842;0,444758372;6,949909095
9,297487583;-5,821597831;2,646022373;-0,395260668;6,406923341
9,307507583;-1,784629566;2,828340896;0,481038153;3,378729438
9,317528583;3,444060598;3,962573848;0,763914167;5,305384977
9,327548583;4,920648319;3,517081504;1,621030612;6,261819418
9,337569583;-1,001779777;2,89990029;-0,132739104;3,070928863
9,347589583;-1,645946183;1,571577786;-0,670220722;2,372380953
9,357610583;-0,385806013;0,221891309;-0,448521202;0,631864939
9,367630583;1,199306761;-1,828825454;-0,852517318;2,347280346
9,377651583;1,61077518;-3,126672855;-1,02350686;3,663092425
9,387671583;3,638460345;-5,328610309;-1,782879495;6,694112398
9,397692583;5,543077993;-9,225983609;-2,106405937;10,96728923
9,407712583;5,217327855;-12,04408545;-0,89821287;13,15626431
9,417733583;0,319371411;-8,305067609;-0,247317342;8,314884963
9,427753583;0,706270707;-4,351597876;-2,053290999;4,863252647
9,437774583;0,890678586;-3,835622025;-1,626477878;4,260367936
9,447794583;1,418201372;-5,529655709;-1,132279397;5,819831959
9,457815583;-1,148063225;-2,31964249;0,538135483;2,643554472
9,467835583;-5,692615271;-1,275667158;4,778344631;7,540939778
9,477856583;-1,004184298;0,071194528;3,558809281;3,6984562
9,487877583;5,763756005;-2,977479393;-1,361920898;6,628807989
9,497897583;5,284960259;-2,614832155;0,26894473;5,902582774
9,507918583;1,036969344;7,958379176;6,233586799;10,16212128
9,517938583;1,922687298;10,53439751;5,222669871;11,91413186
9,527959583;3,261313182;3,164523051;-0,376099927;4,559804926
9,537979583;-5,247576086;6,506675743;-5,402655355;9,953018079
9,548000583;-4,959114227;4,271505055;-3,863089321;7,600133449
9,558020583;-1,183482588;-1,952776485;1,056548599;2,516001188
9,568041583;-2,289785145;-5,796776986;1,962468245;6,534295757
9,578061583;-2,63272522;-3,854612612;-1,288147163;4,84237582
9,588082583;-0,385553231;1,209849145;0,346137917;1,316129821
9,598102583;0,972688344;-0,53783859;0,272905196;1,144495613
9,608123583;0,319644878;-0,338090687;0,704448861;0,844231223
9,618143583;-1,232501551;3,759277854;3,656164252;5,386907006
9,628164583;2,870604278;6,819302976;8,197277112;11,04258186
9,638184583;4,597318343;2,472140213;-3,208044462;6,126855837
9,648205583;-1,624180799;-0,292261965;-5,850962548;6,079238691
9,658225583;-3,933626037;0,071333692;-2,315138379;4,564906134
9,668246583;0,453233619;2,838858867;-0,494440263;2,917021007
9,678266583;0,886027638;4,097424089;-1,136696238;4,343501753
9,688287583;0,67612524;3,838240993;-0,466956303;3,925211771
9,698307583;0,324614243;3,116204;-0,324436269;3,149819149
9,708328583;0,009059749;0,807256653;0,390276209;0,896694431
9,718348583;-1,281716249;-3,012331138;1,206327367;3,488862442
9,728369583;0,882834985;-4,741113655;-2,230098814;5,313275545
9,738389583;-0,254887293;-7,918753765;-0,815970758;7,964762206
9,748410583;2,090357523;-4,77494506;0,701899475;5,259501666
9,758431583;-0,304310591;-1,995235457;0,129865783;2,022482283
9,768451583;-1,785798279;-2,692234672;0,173474025;3,235320117
9,778472583;-0,765207863;-1,070290141;-0,565861956;1,432223381
9,788492583;-0,897023107;-0,804645286;-0,037368678;1,205612255
9,798513583;0,088725943;-1,25043116;0,702267264;1,436881933
9,808533583;0,77272709;-0,730413714;0,703465651;1,274941282
9,818554583;0,66542849;0,557218017;0,338846147;0,93172083
9,828574583;0,606293552;1,876227661;-0,683827193;2,086969511
9,838595583;-0,31154769;0,755318175;-0,759642191;1,115627073
9,848615583;-1,036259492;0,240628712;-0,030072084;1,064255722
9,858636583;0,182579747;0,255735578;-0,111501725;0,333419682
9,868656583;0,442950998;0,859607944;-0,579354991;1,127290384
9,878677583;-0,694174133;1,890933993;-0,232972952;2,027753804
9,888697583;1,04154172;2,207365424;-0,533336526;2,498343275
9,898718583;2,115801243;2,639706795;-0,624961226;3,440238858
9,908738583;-0,942177646;3,052299196;-0,469036012;3,228656667
9,918759583;1,50392667;5,322708714;-0,561671841;5,559541235
9,928779708;0,00151399;4,370489645;-1,066872443;4,498821939
9,938800708;-0,718619368;2,444474697;-0,70907547;2,644741643
9,948820708;-0,196583317;-1,503887494;-0,296788587;1,54544688
9,958841708;0,421131089;-9,255305057;0,049048784;9,265011002
9,968861708;0,293918189;-3,105800634;0,052540449;3,120119546
9,978882708;0,066609434;1,411932426;0,403042435;1,469841215
9,988902708;0,236007072;-0,14320065;0,22234286;0,354460311
9,998923708;0,136499887;0,596122466;0,360194478;0,709742401
10,00894371;0,241358736;-0,253622394;-0,033295069;0,351691513
10,01896471;0,063072015;-1,582886885;0,370014145;1,626781927
10,02898471;-0,668785231;-1,424778174;0,679268703;1,71425567
10,03900571;-0,360603344;-0,619907185;1,21920162;1,414486578
10,04902571;-0,12168392;-0,017237592;0,874639235;0,883231511
10,05904671;-0,027078017;2,898417436;0,718632013;2,98630019
10,06906671;-1,659391416;3,928190466;-0,388990845;4,282005848
10,07908771;-0,101004511;-1,791258262;0,562347925;1,880171073
10,08910871;-0,116883794;-1,0887498;0,889044582;1,410474465
10,09912871;-0,335494377;0,283304615;0,086914037;0,447629346
10,10914971;0,009533812;-1,702971153;-0,638772057;1,818854415
10,11916971;-0,420717837;-0,576969911;-0,990748712;1,221261965
10,12919071;0,089820176;-0,209181216;0,235335081;0,32742487
10,13921071;0,311680714;1,58755998;0,318475617;1,648914272
10,14923171;0,128593209;2,17731249;-0,340921909;2,207590007
10,15925171;0,027135905;0,621774201;-0,714033763;0,94719783
10,16927271;0,368226505;-1,338132378;-0,521536407;1,482629166
10,17929271;0,43821161;-1,084701188;-0,253525769;1,197030241
10,18931371;-0,068600777;0,07227334;0,012784498;0,100463653
10,19933371;0,312085122;0,029498618;0,008716006;0,313597291
10,20935471;0,064359645;0,413078304;-0,665381274;0,785816829
10,21937471;-0,390063736;1,7792206;-0,738167561;1,965366889
10,22939571;-0,352138476;1,038254415;-0,349143094;1,150597513
10,23941571;0,100397131;1,166548174;0,319516422;1,213674161
10,24943671;-0,028117871;1,421093259;0,883231426;1,673437904
10,25945671;0,530845174;0,271441199;0,776677615;0,979134843
10,27116654;0,243065831;0,12572917;-0,772020746;0,819087819
10,28118654;0,110510329;0,082622327;-0,615059259;0,63034663
10,29120654;0,182704147;0,067623049;-0,586664595;0,618165859
10,30122654;0,130160775;-0,022952076;-0,522028888;0,538500497
10,31124654;0,108361185;-0,094537198;-0,408178922;0,432769524
10,32126854;0,168365312;-0,074725662;-0,243929465;0,305667117
10,33128854;0,123394961;0,004934465;-0,047540787;0,132328349
10,34130854;-0,013336622;0,055792378;0,040494307;0,070217119
10,35132854;-0,066584876;0,047793387;0,017129418;0,083732732
10,36134854;-0,08907356;0,110245743;0,099167023;0,172980696
10,37136854;-0,081812195;0,160063435;0,104616044;0,207985709
10,38138854;-0,003962366;0,155058219;-0,051122791;0,163316537
10,39140854;0,077690493;0,161556814;-0,22896644;0,290795542
10,40142854;0,154288433;0,105766776;-0,329349684;0,378764763
10,41144854;0,15984475;-0,063808326;-0,48290166;0,512655693
10,42146854;0,08050388;-0,187153586;-0,623414345;0,65586034
10,43148854;0,020590093;0,000909827;-0,587283815;0,587645352
10,44150854;-0,118942014;0,230223007;-0,201992649;0,328558771
10,45152854;-0,240983345;0,318365105;0,331931815;0,519237944
10,46154854;-0,189909378;0,205706801;0,584146199;0,647771288
10,47156854;-0,026388192;0,05262611;0,502396862;0,505834411
10,48158854;0,155592947;-0,106058552;0,283750173;0,340546241
10,49160854;0,25154137;-0,175048095;0,152576076;0,342336611
10,50162854;0,264658721;-0,063562742;0,095190332;0,288349892
10,51164854;0,225724451;0,057890359;0,004794132;0,233078968
10,52166854;0,168283159;0,12796573;-0,133374989;0,249966672
10,53168854;0,016393839;0,151096146;-0,247964044;0,290834953
10,54170854;-0,254779558;0,068356875;-0,252223155;0,364968226
10,55172854;-0,338703183;0,00059934;-0,287791768;0,444459567
10,56174854;-0,203799731;-0,027283108;-0,424224851;0,471429128
10,57176854;-0,068173857;0,049358101;-0,420926437;0,429258619
10,58178854;-0,014769482;0,123265738;-0,278959549;0,305337534
10,59180854;0,003481725;0,162320461;-0,116015775;0,199548777
10,60182854;0,035486459;0,043339562;-0,013953795;0,057726206
10,61184854;0,124670531;-0,093699877;0,012199631;0,156432859
10,62186854;0,160379477;-0,133179692;0,034707903;0,211336333
10,63188854;0,111942312;-0,076922461;0,09389225;0,165117839
10,64190854;0,081941126;0,01788254;0,2481915;0,261979301
10,65192854;0,168052779;0,069391247;0,429102598;0,466032104
10,66194754;0,142184404;-0,01104656;0,403076642;0,427561937
10,67196754;0,083674241;-0,094143096;0,196810262;0,233663391
10,68198754;0,161155403;-0,107247291;0,00305517;0,193603666
10,69200854;0,123753396;-0,176341499;-0,024220337;0,21678988
10,70202754;0,013017656;-0,189558545;-0,02420338;0,191540348
10,71204754;-0,035189713;-0,032041572;0,006106832;0,047981993
10,72206854;-0,069820433;0,131222629;0,062647069;0,161303832
10,73208754;-0,082990701;0,192768667;0,129825144;0,246782867
10,74210754;-0,067264907;0,150364074;0,162662523;0,231501661
10,75212754;-0,025849956;0,056135609;0,09872205;0,116470898
10,76214754;0,058682364;-0,011410841;0,003397232;0,059877945
10,77216754;0,096756509;-0,019062508;-0,03775781;0,105597601
10,78218854;0,039279256;-0,054427053;-0,085979213;0,10907607
10,79220783;-0,010334077;-0,103889235;-0,139349674;0,174120929
10,80222783;0,007274229;-0,039266392;-0,087194265;0,095904138
10,81224783;-0,080607961;0,073579608;0,032105307;0,113764462
10,82226783;-0,086716839;0,144327993;0,067435353;0,181377801
10,83228783;0,019680558;0,159679858;0,04502473;0,16706947
10,84230783;0,107283543;0,081906043;-0,02406597;0,137104082
10,85232783;0,134067299;0,022304204;-0,100134153;0,168814593
10,86234783;-0,002206739;-0,011229578;-0,093708063;0,094404312
10,87236783;-0,199991732;0,006167058;-0,037892296;0,203643197
10,88238783;-0,251652467;0,085730706;-0,090481569;0,280830256
10,89240783;-0,119260688;0,150052418;-0,140699211;0,237771125
10,90242783;-0,024271792;0,142305441;-0,180493022;0,231122672
10,91244783;0,115317033;0,118223099;-0,151218937;0,22392384
10,92246783;0,234626545;0,124169717;-0,053632416;0,270821288
10,93248783;0,259057966;0,074820971;0,056412182;0,275484195
10,94250783;0,171519008;-0,123661594;-0,290131239;0,35900849
10,95252783;0,280433632;-0,117133763;-0,423751227;0,521467585
10,96254783;0,07764313;0,063322422;-0,018735648;0,101927471
10,97256783;-0,129279307;0,083491223;0,078433966;0,172730456
10,98258783;-0,124786306;-0,010252508;0,156338174;0,200295684
10,99260783;-0,079391155;-0,025854049;0,160785567;0,181172254
11,00262783;0,062975974;0,003345777;0,094348918;0,113485179
11,01264783;0,095473045;0,019984029;-0,035148783;0,103681728
11,02266783;0,049866225;0,0025833;-0,043521411;0,066237655
11,03268783;-0,028652526;0,050434574;0,008655049;0,05864745
11,04270783;-0,067633574;0,096113023;0,0467251;0,126472323
11,05272783;-0,100715658;-0,004828046;0,040849818;0,108791826
11,06274783;-0,039934729;-0,06367267;-0,060351452;0,096391334
11,07276783;0,059333159;-0,006965203;-0,070243186;0,092211946
11,08278783;0,023495574;0,083716341;0,034050676;0,093380492
11,09280783;-0,01339831;0,117746551;0,060411093;0,133016034
11,10282783;-0,018751144;0,021862155;-0,028576512;0,040573098
11,11284783;-0,013079344;-0,042497563;-0,120614026;0,128549039
11,12286783;-0,062019955;0,026207221;-0,106541532;0,126033294
11,13288783;-0,086454592;0,100038258;0,123312516;0,180798302
11,14290783;0,038424685;0,105024764;0,241165486;0,265833499
11,15292783;0,153841998;0,073956753;0,155786197;0,231098033
11,16294783;0,22707969;-0,003319464;-0,018202382;0,227832243
11,17296783;0,222764152;-0,068034693;-0,207025933;0,311628503
11,18298783;0,127594139;-0,153353171;-0,288164236;0,350479794
11,19300783;0,137296424;-0,194742102;-0,283505175;0,370337655
11,20302783;0,220773175;-0,183184496;-0,363658807;0,463190114
11,21304783;0,170259956;-0,193117746;-0,403260244;0,478436768
11,22306783;0,101931295;-0,464674135;-0,472645644;0,670601182
11,23308783;0,251463895;-0,518972549;-0,410435362;0,707830335
11,24310783;0,282553102;0,208692389;-0,118626557;0,370757372
11,25312783;0,371647565;0,193020097;-0,192164065;0,460766425
11,26314783;0,236701283;0,093273615;-0,246412777;0,354184587
11,27316783;0,160922099;0,085147154;-0,069351486;0,19482194
11,28318783;0,198025606;0,041918689;-0,002171656;0,202425377
11,29320783;0,066159345;-0,107533804;-0,175753269;0,216401917
11,30322783;0,147367522;-0,136069386;-0,271216081;0,337328071
11,31324783;0,252260724;-0,014486477;-0,403181891;0,475816108
11,32326783;0,292284184;0,147980749;-0,512170483;0,607985978
11,33328783;0,316461398;0,409510918;-0,297164855;0,596786359
11,34330783;0,142361721;0,581597398;-0,102329782;0,60744858
11,35332783;-0,044708688;0,566601629;0,06894335;0,572529002
11,36334783;-0,025191413;0,421910523;0,140259501;0,445326649
11,37336783;0,000527711;0,276221298;0,295625283;0,404589659
11,38338783;-0,023243998;0,17582519;0,561192369;0,588550471
11,39340783;-0,003376767;0,125912772;0,626530911;0,639066829
11,40342783;0,027296118;0,167853681;0,442000387;0,473586611
11,41344783;0,103851959;0,215709048;0,331877435;0,409216636
11,42346783;0,093479875;0,20556179;0,184524093;0,291621805
11,43348783;0,06793149;0,139303481;0,119215372;0,195531204
11,44350783;0,092015148;0,066103942;0,17299046;0,206790275
11,45352783;0,067057916;0,069112335;0,196757053;0,219058478
11,46354783;-0,036443356;0,119812372;0,163903302;0,206270248
11,47356783;-0,051084053;0,128461574;0,136679835;0,194405077
11,48358783;-0,042835971;0,058269843;0,222531579;0,233988458
11,49360783;-0,18039859;-0,053556987;0,209510415;0,281614303
11,50362783;-0,246263235;-0,173514955;0,159290434;0,34077333
11,51364783;-0,187640951;-0,26122319;0,212052199;0,38524384
11,52366783;-0,14446131;-0,217965488;0,201394479;0,330057208
11,53368783;-0,100940045;-0,153109342;0,066501553;0,195073883
11,54370783;-0,158403119;-0,087072642;-0,06958479;0,193688503
11,55372783;-0,199176923;-0,00717161;-0,179250489;0,268055249
11,56374783;-0,22617571;0,069377214;-0,251558912;0,345326709
11,57376783;-0,229930353;0,161559738;-0,270590429;0,390113697
11,58378783;-0,236109252;0,231101258;-0,275945309;0,430466241
11,59380783;-0,278716597;0,243248849;-0,090012038;0,380729709
11,60382783;-0,265442394;0,152114146;0,057216175;0,311242781
11,61384783;-0,135170523;0,048840623;-0,012434689;0,144260522
11,62386783;-0,03855844;0,039595006;-0,143983008;0,154225887
11,63388783;0,05083467;-0,317944105;-0,310451483;0,447272558
11,64390783;0,086340133;-0,027422857;-0,024980475;0,093971568
11,65392783;-0,256823306;-0,066284621;0,139855458;0,299852315
11,66394783;-0,368610814;0,098563591;0,251716787;0,457110549
11,67396783;-0,286329087;0,227413419;0,367559484;0,518460398
11,68398783;-0,206156598;0,164047728;0,275449466;0,381162181
11,69400783;-0,084230749;0,089510347;0,19377088;0,229464758
11,70402783;0,028878082;0,065389413;0,178679801;0,192447889
11,71404783;0,082882235;0,076755815;0,112113343;0,159155025
11,72406783;0,146638813;0,03916465;-0,073622292;0,168692185
11,73408783;0,212378766;-0,043620813;-0,308747604;0,377269929
11,74410783;0,272054426;-0,156539319;-0,441792226;0,541939609
11,75412783;0,438545706;-0,214547206;-0,396291533;0,628808252
11,76414783;0,507220084;-0,170455107;-0,228793362;0,581956665
11,77416783;0,405096124;-0,122832459;-0,024185253;0,423999539
11,78418846;0,254770934;-0,066286376;0,161456827;0,308821015
11,79420846;0,087240604;-0,021697263;0,220989084;0,238574662
11,80422846;0,012810372;-0,13699617;0,155924776;0,207953341
11,81424846;-0,011768252;-0,341032421;0,047963541;0,344589764
11,82426846;0,04343955;-0,462376179;-0,032421641;0,465542574
11,83428846;0,196246591;-0,48518032;-0,070055491;0,528034506
11,84430846;0,300911605;-0,39366087;-0,004221105;0,495514371
11,85432846;0,206525996;-0,141189793;0,082930475;0,263562152
11,86434846;-0,05123038;0,086563935;0,122781588;0,158723612
11,87436846;-0,326732324;0,246139712;0,080916109;0,416996626
11,88438846;-0,567544931;0,252110304;-0,078434551;0,625954338
11,89440846;-0,629049746;0,163325012;-0,23823837;0,692196622
11,90442846;-0,562112283;0,073266782;-0,426143323;0,70918007
11,91444846;-0,485757733;-0,001151317;-0,511465893;0,705378806
11,92446846;-0,38314436;-0,03062947;-0,556209957;0,676097095
11,93448846;-0,320902212;-0,024894521;-0,623174025;0,701387077
11,94450846;-0,213738829;-0,036502413;-0,623796169;0,660407732
11,95452846;-0,100392307;-0,136625456;-0,544662876;0,570440863
11,96454846;0,031549968;-0,176244435;-0,320974717;0,3675354
11,97456846;-0,050617738;-0,159600921;-0,296219945;0,340265874
11,98458846;-0,128962826;-0,175158023;-0,367017447;0,426630461
11,99460846;-0,021863909;-0,240005983;-0,278960719;0,368646151
12,00462846;0,09774805;-0,330913814;-0,175685441;0,387200217
12,01464846;0,336797867;-0,318911235;-0,059068573;0,467574887
12,02466846;0,472830416;-0,307393389;-0,007975602;0,564023854
12,03468846;0,542391671;-0,298866395;0,032184829;0,620117497
12,04470946;0,520580095;-0,205830762;0,099833606;0,568627019
12,05472846;0,502890952;-0,116463672;0,148848476;0,537232692
12,06474846;0,447056182;-0,043068836;0,240215313;0,509330493
12,07476846;0,446875941;0,047230884;0,401275699;0,602454189
12,08478946;0,536949229;0,150261163;0,611777217;0,827746492
12,09480846;0,574582055;0,270812039;0,807658356;1,027519206
12,10482946;0,523847957;0,340135458;0,943222543;1,131272548
12,11484946;0,481071482;0,345856374;1,050986143;1,206490064
12,12486846;0,335926778;0,329777116;1,106220111;1,202215738
12,13488946;0,187045558;0,236722772;1,076534382;1,118011622
12,14490946;0,150466547;0,120581866;0,924267039;0,944166155
12,15492946;0,152711;-0,017744545;0,754242872;0,769751797
12,16494946;0,177572777;-0,170482004;0,515609815;0,571357757
12,17496946;0,122064866;-0,364100271;0,25071165;0,458612223
12,18498946;0,009903429;-0,385235032;0,064504144;0,39072355
12,19500946;-0,160736158;-0,194690647;-0,019081219;0,253188967
12,20502946;-0,422048079;0,014439699;-0,068306589;0,427783679
12,21504946;-0,665539441;0,107832012;-0,176889383;0,697036831
12,22506946;-0,767163903;0,10345888;-0,270184048;0,819904637
12,23508946;-0,804126638;0,107180632;-0,322370448;0,872943322
12,24510946;-0,765572729;0,082108941;-0,371399935;0,854857529
12,25512946;-0,672203513;0,004626317;-0,428443617;0,797146723
12,26514946;-0,488284899;-0,090008529;-0,508445807;0,710662238
12,27516946;-0,342217944;-0,179251074;-0,652959741;0,758683394
12,28518946;-0,284501832;-0,238213227;-0,786096164;0,869272117
12,29520946;-0,319450348;-0,206130139;-0,726756865;0,820191259
12,30522946;-0,36883023;-0,082241673;-0,552107551;0,669045723
12,31524946;-0,341807469;-0,038059527;-0,455867643;0,571048318
12,32526946;-0,257407005;-0,020185758;-0,435248607;0,506070332
12,33528946;-0,305315143;-0,029124396;-0,298190457;0,427765257
12,34530946;-0,274953475;-0,055160294;-0,186204582;0,336621773
12,35532946;-0,261267044;-0,122434849;-0,146574494;0,32362763
12,36534946;-0,24503912;-0,114701906;-0,16836999;0,318667776
12,37536946;-0,267795899;-0,056588768;-0,19650036;0,336941128
12,38538946;-0,325770896;0,026993086;-0,189479023;0,377832772
12,39540946;-0,298725477;0,178599109;-0,302879924;0,461379237
12,40542946;-0,189342929;0,234597893;-0,410665743;0,509444078
12,41544946;0,018912527;0,219713806;-0,548895675;0,591538927
12,42546946;0,102027335;0,123518338;-0,634880151;0,654781767
12,43548946;0,116324801;0,040253402;-0,673463588;0,684620332
12,44550946;0,09772203;0,005675308;-0,667951418;0,675085847
12,45552946;0,011440662;0,053147097;-0,550367419;0,553045928
12,46554946;-0,012514065;0,193882561;-0,45600096;0,495665134
12,47556946;-0,016562238;0,259859619;-0,432285823;0,504650733
12,48558946;-0,006144693;0,251555403;-0,469735485;0,532887703
12,49560946;0,036852369;0,267659805;-0,465120277;0,537900307
12,50562946;0,084301647;0,33531209;-0,425603625;0,548342421
12,51564946;-0,01794949;0,371754277;-0,441601022;0,577524795
12,52566946;-0,109114453;0,392835828;-0,469294605;0,621661787
12,53568946;-0,173406782;0,396188622;-0,397439926;0,587361754
12,54570946;-0,21765851;0,350859252;-0,29312326;0,506358259
12,55572946;-0,218256534;0,329510483;-0,177931942;0,433443016
12,56574946;-0,216653373;0,246991652;-0,109199091;0,346219586
12,57576946;-0,178968653;0,151618887;-0,12296753;0,264837835
12,58578946;-0,075179113;0,044954563;-0,242976369;0,258283425
12,59580946;0,039644999;-0,063867967;-0,381564735;0,388899075
12,60582946;0,094252146;-0,113450602;-0,448688432;0,472309025
12,61584946;0,155808124;-0,016996102;-0,419664023;0,447976485
12,62586946;0,169491778;0,0806945;-0,337903576;0,386546106
12,63588946;0,157196692;0,148518108;-0,278982938;0,352987122
12,64590946;0,089702282;0,234955158;-0,209651332;0,327420383
12,65592946;0,085486293;0,339846606;-0,196483988;0,40175811
12,66594946;0,097678468;0,388543972;-0,090105008;0,410641466
12,67596946;0,084901571;0,371971208;-0,032936196;0,382956459
12,68598946;0,136375342;0,320906305;-0,080576386;0,357870988
12,69600946;0,252326359;0,30131287;-0,150828343;0,420959886
12,70602946;0,366177202;0,269750769;-0,135864149;0,474668609
12,71604946;0,44285218;0,262778549;-0,033130324;0,516011858
12,72606946;0,434228268;0,206532428;0,057399192;0,484256646
12,73608946;0,397624552;0,105576156;0,169886758;0,445098999
12,74610946;0,312595949;-0,044830602;0,2604765;0,409358056
12,75612946;0,237597807;-0,189439262;0,360812967;0,471726562
12,76614946;0,184708719;-0,286550404;0,363215588;0,498150588
12,77616946;0,127541076;-0,394660159;0,234525973;0,476472244
12,78618908;0,114094819;-0,480449338;0,12723015;0,509937942
12,79620908;0,112724085;-0,50376628;0,066285791;0,520462285
12,80622908;0,115738325;-0,505095937;-0,083373109;0,524850779
12,81624908;0,116960685;-0,537286028;-0,264580076;0,610212008
12,82626908;0,101163555;-0,536125356;-0,50882763;0,746036205
12,83628908;-0,015948427;-0,434452216;-0,764760844;0,879694395
12,84630908;-0,122086939;-0,27312052;-0,923948951;0,971175423
12,85632908;-0,215784916;-0,073217665;-1,014560913;1,039835469
12,86634908;-0,272272235;0,171246235;-1,000014794;1,05046991
12,87636908;-0,351585183;0,345099159;-0,99084753;1,106564231
12,88638908;-0,432115084;0,459184184;-1,026461166;1,204656003
12,89640908;-0,386835415;0,501405759;-1,064068118;1,238261012
12,90642908;-0,282232967;0,545809515;-0,956205701;1,136614629
12,91644908;-0,079368059;0,610046441;-0,729704447;0,954423663
12,92646908;0,171294329;0,616277234;-0,445599933;0,779550304
12,93648908;0,360970695;0,586484501;-0,363821944;0,778864763
12,94650908;0,316250752;0,518176743;-0,411607729;0,733445702
12,95652908;0,289435713;0,542419299;-0,199766614;0,646450638
12,96654908;0,387132015;0,677121606;0,106271975;0,787183968
12,97656908;0,461290059;0,855623651;0,385456057;1,04568481
12,98658908;0,599703886;1,073501431;0,714243239;1,422038494
12,99660908;0,776029305;1,250006652;1,114502692;1,845766606
13,00662908;0,981418164;1,303832611;1,513893249;2,225990535
13,01664908;1,192164095;1,218478466;1,548596474;2,303062318
13,02666908;1,302274767;1,087587374;1,625401406;2,349616053
13,03668908;1,371855025;0,942223254;1,72971164;2,400348564
13,04670908;1,439489769;0,339667096;1,650460233;2,21619573
13,05672908;1,90021791;-0,557126216;1,421955138;2,437862618
13,06674908;1,502520268;-0,225425366;1,6960691;2,277067005
13,07676908;1,281132258;-0,32276338;1,714337556;2,16435425
13,08678908;1,497188631;-0,338189505;0,884483753;1,771512757
13,09680908;1,660476952;-0,04798576;0,336398503;1,694889464
13,10682908;1,553843327;-0,122007417;0,484794404;1,632280769
13,11684908;1,215467515;-0,281477945;0,515886973;1,350085361
13,12686908;0,835229294;-0,274727334;0,083275461;0,883186211
13,13688908;0,76624187;-0,108305052;-0,14831404;0,787942664
13,14690908;0,589442973;0,018146249;-0,284309751;0,654678806
13,15692908;0,494832282;-0,024978136;-0,173085185;0,524825091
13,16694908;0,478488291;-0,24952525;-0,002583885;0,539648563
13,17696908;0,874509427;-0,427752476;0,310338047;1,021786975
13,18698908;1,041789203;-0,687862356;0,3668432;1,301173816
13,19700908;0,661253213;-1,032501925;0,270126745;1,25550169
13,20702908;0,565863089;-1,030814418;0,091535822;1,179473699
13,21704908;0,55367983;-1,091023198;0,026882574;1,223771076
13,22706908;0,653645181;-1,42433437;0,335441898;1,602654576
13,23708908;0,074581893;-1,853125897;0,496273073;1,919876301
13,24710908;0,132747108;-1,939092831;0,780300404;2,094414363
13,25712908;-0,109706483;-1,964215393;0,755142758;2,107229985
13,26714908;-0,216914799;-2,00569788;1,106669762;2,300998474
13,27716908;-0,304215135;-2,040801054;1,3156282;2,447098966
13,28718908;-0,015012872;-1,434031393;0,787441608;1,636073259
13,29720908;0,534185725;-0,67019324;-0,888076283;1,234176994
13,30722908;-2,137021227;0,04044636;-0,533508727;2,202981433
13,31724908;-12,97156728;8,721875852;0,514774833;15,63961858
13,32726908;-9,500868818;10,95106075;-4,644269146;15,22371425
13,33728908;-8,492362697;4,814747642;-1,314360523;9,850358502
13,34730908;-0,403274497;-2,360370101;-0,883957504;2,552519971
13,35732908;4,406145966;-2,448434431;-1,073176911;5,153703728
13,36734908;3,063874344;-2,369073097;0,336750505;3,887574338
13,37736908;1,915147898;-1,525814552;0,407308272;2,482297635
13,38738908;2,109050194;-2,288639383;0,049794304;3,112626289
13,39740908;3,087369041;-4,749617261;-0,139749624;5,666589951
13,40742908;4,090795101;-6,442970914;-0,275081091;7,636893895
13,41744908;4,049224029;-6,785805447;-0,084499283;7,902563567
13,42746908;2,833820322;-5,533908389;0,696428527;6,256172342
13,43748908;0,550521164;-2,895452313;1,891692962;3,502173599
13,44750908;-0,916840125;-0,033602194;1,750083924;1,975985492
13,45752908;-1,715609325;2,476975275;0,358795677;3,034379048
13,46754908;-2,60962521;4,640019389;-1,678714564;5,581935709
13,47756908;-3,886756803;6,598022116;-2,668130695;8,10923521
13,48758908;-2,065283054;3,561556011;-1,616922943;4,423179299
13,49760908;0,032627317;1,60267971;0,789217992;1,786760151
13,50762908;1,753600147;0,306898715;1,006247926;2,04495359
13,51764908;2,205363337;-1,224596992;0,540082752;2,579719873
13,52766908;1,609076272;-1,790113378;-2,265988439;3,305803376
13,53768908;1,10063719;-1,682987124;-4,491745695;4,921344051
13,54770908;0,387733548;-0,880152721;-4,746104254;4,842572839
13,55772908;0,322016545;0,072939922;-3,418980428;3,434886032
13,56774908;0,757918724;0,848520454;-1,055468618;1,551915512
13,57776908;0,994438013;0,967323012;0,60642643;1,514058712
13,58778908;1,292665599;0,507253559;1,901444364;2,354523559
13,59780908;1,594979366;0,720471109;3,524458351;3,935078711
13,60782908;1,113083719;2,113384881;4,022624168;4,678339045
13,61784908;1,013049992;2,755507978;2,81723411;4,06889451
13,62786908;-1,369497136;1,285635492;0,949106596;2,104562746
13,63788908;-4,660186436;0,075686944;-0,880202422;4,743186949
13,64790908;-7,982205995;-0,431088898;-2,647921548;8,420982052
13,65792908;-8,877577264;1,026740078;-5,683260895;10,5907992
13,66794908;-1,163185221;1,502568362;-6,507221289;6,778985207
13,67796908;3,58061618;0,025654659;-7,616659123;8,416351144
13,68798908;6,690344388;-1,634479793;-8,059017359;10,60094303
13,69800908;6,847305876;-2,07514643;-5,560633088;9,061593172
13,70802908;4,863566045;-1,422919344;-2,023731278;5,456598063
13,71804908;3,864983819;-1,080153224;0,022623462;4,013146238
13,72806908;3,148926481;-1,236025375;1,132848916;3,567470165
13,73808908;1,99718258;-1,090183245;1,93346781;2,985889404
13,74810908;0,987588072;-0,519384193;3,574951982;3,745046303
13,75812908;0,653765634;-0,35275872;5,629939551;5,678738202
13,76814908;0,361418921;0,297354597;6,161116408;6,178867112
13,77816908;-0,026256081;0,753763985;4,492583601;4,555453538
13,78818904;-0,630993506;1,086593055;1,776486441;2,175946081
13,79820904;-0,876778293;1,350144606;-0,032779491;1,610187916
13,80822904;-0,538448747;1,413337804;-0,394232143;1,562968261
13,81824904;-0,242300175;1,380805066;0,231250362;1,420847893
13,82826904;-0,487745055;1,104874375;1,056439841;1,604589592
13,83828904;-0,737877319;1,029772737;1,545534872;1,998392571
13,84830904;-0,763287857;1,187879694;1,824270473;2,306865682
13,85832904;-0,969000578;1,093143983;2,358576175;2,77431207
13,86834904;-1,230464819;0,947210636;3,143789409;3,506374696
13,87836904;-1,156235221;0,777434099;3,609150007;3,868752698
13,88838904;-0,999304504;0,498684172;3,331875626;3,514070372
13,89840904;-0,858524236;0,380874471;2,410021148;2,586567447
13,90842904;-0,391750146;0,268150971;1,291364009;1,37586123
13,91844904;-0,006852717;0,168106281;0,344189333;0,383109616
13,92846904;-0,301771072;0,154374387;-0,100195549;0,353463406
13,93848904;-0,59445791;0,275405904;-0,304952177;0,722650987
13,94850904;-0,149664601;0,172995722;-0,28293741;0,363841436
13,95852904;0,798177535;-0,063275644;-0,474920796;0,930935522
13,96854904;1,38901865;0,193967931;-0,861350999;1,645880284
13,97856904;1,31296377;0,583016517;-0,749839919;1,620506718
13,98858904;0,647952917;0,665438284;-0,115670789;0,935965183
13,99860904;0,103059369;0,499583766;0,260465975;0,572754483
14,00862904;-0,122623714;0,564841032;-0,167085357;0,601663929
14,01864904;0,009629779;0,916383238;-0,735370399;1,174998126
14,02866904;0,363480467;1,053748367;-0,956453623;1,468777452
14,03868904;0,597766411;1,126442707;-0,908446228;1,565717855
14,04870904;0,55939552;1,197156594;-0,557673515;1,434261834
14,05872904;0,282949104;1,400567778;0,011459958;1,428909244
14,06874904;0,21221826;1,602936988;0,930738738;1,865668292
14,07876904;0,514863418;1,419641395;1,970260245;2,482416456
14,08878904;0,734349767;0,862955475;2,86376976;3,079795281
14,09880904;0,782727875;0,775181167;3,120387098;3,309136505
14,10882904;0,688681259;0,623172271;2,363853872;2,539769809
14,11884904;0,391030793;0,092795312;0,946645503;1,028422948
14,12886904;0,07948588;-0,175327007;-0,349726646;0,399207078
14,13888904;-0,1671564;-0,334509267;-0,849971732;0,92859553
14,14890904;-0,300477303;-0,709970679;-0,788301734;1,102617158
14,15892904;-0,520959433;-0,869599666;-0,576431968;1,166137266
14,16894904;-0,415939347;-1,145784127;-0,378517166;1,276362821
14,17896904;-0,439857382;-1,510114778;-0,384118799;1,619094936
14,18898904;-0,891091107;-1,651507469;-0,621699942;1,976874073
14,19900904;-1,540481708;-1,726153024;-0,789912642;2,444718826
14,20902904;-1,88292477;-1,716368878;-0,821872938;2,67708852
14,21904904;-1,677549214;-1,663999461;-0,696367131;2,463329607
14,22906904;-0,955397615;-1,678972426;-0,443109604;1,981938226
14,23908904;-0,530827194;-1,732192613;-0,220396761;1,82505986
14,24910904;-0,678248949;-1,757041526;-0,200708601;1,894069825
14,25912904;-0,863818524;-1,641603456;-0,304487323;1,879828949
14,26914904;-0,969400235;-1,601563477;-0,42269522;1,919222143
14,27916904;-1,131590303;-1,624336043;-0,445834406;2,029219681
14,28918904;-1,325554433;-1,47489466;-0,319629858;2,008624419
14,29920904;-1,40570748;-1,348940957;0,017013643;1,948318426
14,30922904;-1,41742033;-1,273901299;0,430109489;1,953688585
14,31924904;-1,299450708;-1,140919243;0,720360596;1,873282747
14,32926904;-1,089018772;-1,119960483;0,696016883;1,710179193
14,33928904;-0,992826228;-0,998645377;0,542031628;1,508905164
14,34930904;-1,022546748;-0,921973761;0,379629307;1,428200223
14,35932904;-1,032773235;-0,824215917;0,212536349;1,338328858
14,36934904;-0,981403107;-0,673371786;0,155916005;1,200371368
14,37936904;-0,744311376;-0,610931709;0,199848475;0,983451265
14,38938904;-0,478842815;-0,535069934;0,305004217;0,780139634
14,39940904;-0,379290753;-0,478958883;0,648156254;0,890712982
14,40942904;-0,524916244;-0,427115715;0,916143503;1,138983676
14,41944904;-0,755819866;-0,422087694;1,062971181;1,370886364
14,42946904;-0,904394692;-0,371246154;1,134241138;1,497416584
14,43948904;-0,993678752;-0,481712337;1,044998594;1,520350715
14,44950904;-1,104381454;-0,558930082;0,783636825;1,464973688
14,45952904;-1,138590297;-0,704607028;0,490949183;1,426145164
14,46954904;-1,207887696;-0,787264438;0,377257091;1,490335833
14,47956904;-0,912560621;-0,937451926;0,541703015;1,415989109
14,48958904;-0,495692737;-1,091079916;0,747738429;1,412543603
14,49960904;-0,314715858;-1,145927968;0,811645573;1,439084957
14,50962904;-0,164016446;-1,199646338;0,870874944;1,4914677
14,51964904;-0,311364526;-1,201174216;0,783385395;1,46746722
14,52966904;-0,453763815;-1,218908821;0,550723515;1,412422282
14,53968904;-0,479657333;-1,141829655;0,235562684;1,260688659
14,54970904;-0,482620117;-1,125777293;0,150958736;1,234133393
14,55972904;-0,572990589;-1,097645169;0,138057439;1,245874388
14,56974904;-0,723475116;-1,000030582;0,208471364;1,251773828
14,57976904;-0,771282243;-0,971150599;0,457004342;1,321689356
14,58978904;-0,783532745;-0,909441424;0,752886318;1,4169845
14,59980904;-0,711534809;-0,862982957;0,910852357;1,442453945
14,60982904;-0,58863423;-0,79836947;0,93210991;1,361143986
14,61984904;-0,622531708;-0,714956015;0,912655638;1,315921025
14,62986904;-0,821935211;-0,68575502;0,852575498;1,368474485
14,63988904;-1,003695617;-0,635186545;0,742442606;1,400745466
14,64990904;-1,166446725;-0,577830622;0,628400851;1,445466644
14,65992904;-1,22573603;-0,602536862;0,531552249;1,465614983
14,66994904;-1,021636629;-0,557990434;0,407304178;1,233284809
14,67996904;-0,551675441;-0,5492009;0,249608865;0,817479056
14,68998904;-0,238120256;-0,504211838;0,249171494;0,610751395
14,70000904;-0,160521857;-0,450739635;0,383993669;0,613501934
14,71002904;-0,104790291;-0,271813082;0,653646789;0,715623841
14,72004904;0,14191017;-0,13719439;1,058216225;1,076467545
14,73006904;0,264267835;-0,056277696;1,440266279;1,465391286
14,74008904;0,507064109;0,033487589;1,705255076;1,77936233
14,75010904;0,82991666;0,230318901;1,89237884;2,079159959
14,76012904;1,142078454;0,359235973;2,235281201;2,535719962
14,77014904;1,59459535;0,400369381;2,537864671;3,02386955
14,78016904;1,950679381;0,484553499;2,565595091;3,25917479
14,79018892;2,051207052;0,453368543;2,280822825;3,100829915
14,80020892;1,93048953;0,467725797;1,795646013;2,677667241
14,81022892;1,750879145;0,432354235;1,203973863;2,168423627
14,82024892;1,532851092;0,370525192;0,59138973;1,68423965
14,83026892;1,14414983;0,341689063;0,128586704;1,200984925
14,84028892;0,743060364;0,301084244;-0,152764356;0,816166267
14,85030892;0,531899866;0,2257838;-0,332663301;0,666753825
14,86032892;0,421349775;0,26806911;-0,511724925;0,715023832
14,87034892;0,378094705;0,309852144;-0,632912562;0,799713867
14,88036892;0,315643518;0,311638468;-0,526681518;0,688580269
14,89038892;0,310157953;0,306431522;-0,243692653;0,499484076
14,90040892;0,443646378;0,334642584;0,090000928;0,562945765
14,91042892;0,649777687;0,396516066;0,401057013;0,860396862
14,92044892;0,737835877;0,34844669;0,541162148;0,979118659
14,93046892;0,73088997;0,355250511;0,28098327;0,859857355
14,94048892;0,497020639;0,516751192;-0,098702754;0,723742733
14,95050892;0,226449798;0,577116092;-0,003656264;0,619964405
14,96052992;0,11609062;0,572844701;0,092207083;0,591718032
14,97054892;0,224972499;0,562659436;0,00898834;0,606035524
14,98056992;0,248895213;0,607777721;-0,141887366;0,671918604
14,99058892;0,064716983;0,624177992;-0,199506998;0,658475129
15,00060992;0,081702852;0,593598808;-0,135834328;0,614398784
15,01062992;0,193212178;0,547299385;-0,137684972;0,596510448
15,02064992;0,103241656;0,477288333;-0,231756731;0,540531382
15,03066992;-0,085295089;0,443034174;-0,267059296;0,524285418
15,04068992;-0,13640297;0,377261184;-0,222795873;0,458878821
15,05070992;-0,235734884;0,249777265;-0,378542894;0,511130454
15,06072992;-0,432061874;0,17983521;-0,692522002;0,835825873
15,07074992;-0,532319111;0,10949613;-0,907325317;1,057635225
15,08076992;-0,666864128;0,009095929;-1,17718309;1,352978392
15,09078992;-0,991097206;-0,037685305;-1,55077807;1,840816796
15,10080992;-1,218566759;-0,098077102;-1,75873371;2,141884293
15,11082992;-1,399297763;-0,105774377;-1,819696196;2,297937486
15,12084992;-1,484917957;-0,129288955;-1,674269511;2,241623377
15,13086992;-1,188956166;-0,128632312;-1,472924733;1,897279712
15,14088992;-0,962968883;-0,036033466;-1,245352854;1,574646376
15,15090992;-0,964299124;0,005184141;-0,967092631;1,365711475
15,16092992;-1,159539117;0,042025108;-0,791225342;1,40439831
15,17094992;-1,347607791;0,068687242;-0,875324675;1,608402308
15,18096992;-1,317663615;0,000923275;-0,782393707;1,532441897
15,19098992;-0,898782242;-0,025979764;-0,689192598;1,132903749
15,20100992;-0,388063623;0,079677084;-0,644388893;0,756425051
15,21102992;-0,208663153;0,135409235;-0,643433458;0,689842436
15,22104992;-0,305655304;0,088286524;-0,659055464;0,731829065
15,23106992;-0,54228569;0,134790015;-0,740187335;0,927426228
15,24108992;-0,65307727;0,181881736;-0,854264174;1,090576987
15,25110992;-0,724188476;0,174599029;-0,832790859;1,117351504
15,26112992;-0,765282415;0,205094013;-0,67691286;1,042080491
15,27114992;-0,608705967;0,20485837;-0,432914983;0,774535531
15,28116992;-0,392466284;0,144170703;-0,276499625;0,501265417
15,29118992;-0,322624509;0,053599672;-0,384780704;0,504990781
15,30120992;-0,469951247;-0,071991504;-0,44428314;0,650710734
15,31122992;-0,789905625;-0,279081756;-0,600262295;1,030607755
15,32124992;-0,9853874;-0,473160784;-0,609586265;1,251584943
15,33126992;-1,112309402;-0,654115151;-0,612587056;1,428412313
15,34128992;-1,285163329;-0,846276292;-0,751795812;1,712607745
15,35130992;-1,303180939;-0,96694879;-0,783995259;1,802198405
15,36132992;-0,978381851;-1,030482296;-0,68286708;1,576525375
15,37134992;-0,432820258;-1,18748296;-0,494500197;1,357195491
15,38136992;-0,160000578;-1,305528889;-0,429334148;1,383594476
15,39138992;-0,019286456;-1,336544275;-0,710833728;1,513937632
15,40140992;0,069309678;-1,26991993;-0,951087048;1,588101707
15,41142992;0,072635867;-1,131008797;-0,894621656;1,443885306
15,42144992;-0,177751848;-1,0928984;-0,663772413;1,290974999
15,43146992;-0,603748697;-0,995190842;-0,53434254;1,280796335
15,44148992;-0,861376434;-0,82139639;-0,558082235;1,314578705
15,45150992;-1,094520125;-0,685583696;-0,679858103;1,459522644
15,46152992;-1,329291096;-0,565446804;-0,965554229;1,737538453
15,47154992;-1,44141321;-0,511894494;-1,337772775;2,032078742
15,48156992;-1,446352061;-0,529482919;-1,69413601;2,289625137
15,49158992;-1,471846506;-0,492137337;-1,977921851;2,514101459
15,50160992;-1,432109998;-0,447438297;-2,165772425;2,63471256
15,51162992;-1,346561725;-0,37043573;-2,198277681;2,604395491
15,52164992;-1,336440779;-0,371478873;-2,208416169;2,607905766
15,53166992;-1,692998727;-0,598211676;-2,228566843;2,86192454
15,54168992;-2,396763756;-0,907834024;-2,316969143;3,454994229
15,55170992;-2,605663136;-0,958603351;-2,436537101;3,693929319
15,56172992;-2,095448547;-0,712317459;-2,48029357;3,324177638
15,57174992;-2,035015819;-0,749363371;-2,65166669;3,425517637
15,58176992;-2,703998685;-1,20955503;-3,131680995;4,310691141
15,59178992;-3,431844887;-1,41960485;-3,820894643;5,328421261
15,60180992;-3,873932397;-1,445917028;-4,651204528;6,223482292
15,61182992;-4,066504598;-1,586696931;-5,130925303;6,736502153
15,62184992;-3,925582607;-1,900831575;-5,139083338;6,740440419
15,63186992;-3,362778745;-2,01158281;-4,468843905;5,943510086
15,64188992;-2,070402583;-2,551671993;-2,836865551;4,341129228
15,65190992;0,061644271;-2,58491663;-0,782066263;2,70133701
15,66192992;2,407038483;-1,644377375;0,94715538;3,065112481
15,67194992;4,048686962;-0,326189118;1,964072136;4,511745207
15,68196992;4,408611152;0,178156329;2,076702958;4,876503578
15,69198992;4,026198571;0,500071132;1,179287503;4,22505208
15,70200992;3,698088496;0,663464264;-0,526525982;3,793846724
15,71202992;3,286997661;0,467317807;-2,404625337;4,099385633
15,72204992;2,250983899;-0,520049898;-3,809221262;4,455058589
15,73206992;1,229646063;-1,875863087;-4,326119218;4,873007209
15,74208992;0,803154831;-2,379672344;-4,276385726;4,959372241
15,75210992;0,723337414;-2,275508291;-3,493229542;4,231289121
15,76212992;1,190893056;-1,666984172;-1,53396791;2,559320232
15,77214992;2,740230665;-1,143214568;1,448531903;3,303641675
15,78216992;4,187542839;-0,901946463;3,683490922;5,649524566
15,79219004;4,498749197;-0,847812356;5,16257979;6,899982624
15,80221004;3,603510953;-1,047483076;5,444626669;6,612599454
15,81223004;2,573016085;-1,005576666;4,803822119;5,5415073
15,82225004;1,888450389;-1,029583579;3,816340832;4,380724205
15,83227004;0,896389854;-1,023704204;2,729132942;3,049533027
15,84229004;-0,696880517;-1,214265547;1,785688205;2,269089165
15,85231004;-2,288613655;-1,150561886;1,202044866;2,829568337
15,86233004;-3,318103094;-0,589021608;1,112919266;3,548991954
15,87235004;-3,548800602;0,126982228;1,410922612;3,821100995
15,88237004;-3,328557916;0,314711764;1,728358009;3,763716608
15,89239004;-3,274162146;-0,068974925;1,641245606;3,663138331
15,90241004;-3,632887656;-0,403801112;1,288176107;3,8756065
15,91243004;-3,864692335;-0,260806868;0,860117236;3,967829221
15,92245004;-3,855194702;-0,035002018;0,47102655;3,884020771
15,93247004;-3,768474355;-0,045204824;0,238240124;3,776268104
15,94249004;-3,434429649;-0,169927104;0,150796183;3,441935752
15,95251004;-2,500166502;-0,194941492;0,24085266;2,51929449
15,96253004;-1,161034396;0,026244058;0,725691503;1,369422424
15,97255004;0,251567683;0,404592825;1,571339804;1,641977598
15,98257004;1,387460659;0,581965188;2,438078427;2,864953224
15,99259004;1,967444664;0,596764491;2,988754579;3,627619095
16,00261004;2,13722968;0,512446471;2,978993238;3,701993085
16,01263004;2,374633506;-0,290020142;2,455983186;3,428534583
16,02265004;2,402815478;-1,183277643;1,552143395;3,095612592
16,03267004;2,373677048;-1,440018942;0,436703979;2,810463956
16,04269004;2,23133433;-1,048092356;-0,740458061;2,574029646
16,05271004;1,720644509;-0,264794084;-1,553462527;2,333233648
16,06273004;0,888596831;0,025950528;-1,686987205;1,906883213
16,07275004;-0,002114938;0,038265349;-1,302702929;1,303266524
16,08277004;-0,482697154;0,192833571;-0,739435968;0,903851138
16,09279004;-0,642045767;0,746557292;-0,16361328;0,998168254
16,10281004;-0,427966046;1,148899523;0,376106944;1,282412369
16,11283004;-0,355279747;0,914751281;0,702014372;1,206572742
16,12285004;-0,676057851;0,451650047;0,643843932;1,03710028
16,13287004;-0,972548376;-0,143157966;0,272562695;1,020115175
16,14289004;-1,18235159;-0,771161206;-0,119862074;1,416690441
16,15291004;-0,743363835;-0,908765486;-0,327694922;1,218945635
16,16293004;-0,075008667;-0,865897209;-0,308819525;0,922373989
16,17295004;0,324891475;-1,090677627;0,124163285;1,14479198
16,18297004;0,531241615;-1,498965307;0,897841133;1,826262124
16,19299004;0,684012915;-1,746275048;1,659240412;2,504082458
16,20301004;0,833094549;-1,850506344;2,141919293;2,950633579
16,21303004;0,711887104;-1,985161874;2,201424068;3,048592928
16,22305104;0,221036812;-2,14774429;1,79920112;2,810478158
16,23307004;-0,190641486;-2,413644667;1,057762481;2,642136677
16,24309004;-0,265502182;-2,796291137;0,041260293;2,80917033
16,25311104;0,217732075;-2,805941967;-0,995534073;2,985264757
16,26313104;0,951584719;-2,760131956;-1,597792023;3,328179869
16,27315104;1,606958557;-2,569799824;-1,666433657;3,458784189
16,28317104;2,472460055;-2,552407281;-1,534487727;3,870722702
16,29319104;3,30635253;-2,419736881;-1,403263344;4,330847681
16,30321104;3,361508438;-2,038730555;-1,30168259;4,141320903
16,31323104;2,700992047;-1,720875912;-1,15092266;3,403144856
16,32325104;2,319562383;-1,602416001;-0,898773179;2,959036991
16,33327104;2,26656015;-1,861114363;-0,858212214;3,055743738
16,34329104;1,981658222;-2,032661145;-1,212952262;3,087059091
16,35331104;1,367951863;-1,973831139;-1,724676602;2,956655382
16,36333104;0,354052124;-1,945254042;-1,942326341;2,771641718
16,37335104;-0,844718448;-1,885992512;-1,529607056;2,571033791
16,38337104;-1,367902308;-1,831618668;-0,736132291;2,401639944
16,39339104;-0,86938215;-1,958329586;-0,149390513;2,147835565
16,40341104;-0,087344026;-2,108089643;-0,049966212;2,110489882
16,41343104;0,301339255;-2,406443236;-0,467831631;2,469947536
16,42345104;0,325680045;-2,536487651;-1,337486261;2,88594986
16,43347104;0,7917149;-2,138626142;-2,377670842;3,294518613
16,44349104;9,540859095;2,926214515;-1,250662125;10,05757821
16,45351104;16,82433744;3,08385428;5,503486496;17,9682178
16,46353104;3,446460295;-4,503997951;8,334070968;10,0807155
16,47355104;-3,158199288;-4,14153373;5,363430478;7,476156156
16,48357104;-1,029860445;0,949018303;2,227318463;2,631006615
16,49359104;-0,470190252;2,872922992;2,140618873;3,61344912
16,50361104;-3,356270794;-0,01814391;3,229598469;4,657809476
16,51363104;-5,307760307;-2,406862482;4,959203104;7,652385374
16,52365104;-4,267139524;-2,00223165;5,777209863;7,456109247
16,53367104;-2,240944522;-1,964843384;4,56698942;5,453424084
16,54369104;-1,095992454;-1,741703694;1,506918105;2,550594714
16,55371104;-1,826309104;-1,290729586;-1,772902098;2,853869243
16,56373104;-3,961519302;-1,336741911;-5,528548831;6,931476488
16,57375104;-4,5006703;-0,917270846;-8,308040333;9,49320563
16,58377104;-4,379640538;0,245916933;-8,845331624;9,873277972
16,59379104;-5,013709095;0,765817435;-7,243679854;8,842774059
16,60381104;-6,925202483;1,233663685;-4,220869921;8,203419922
16,61383104;-8,644658691;1,963247679;-0,819081477;8,902547939
16,62385104;-8,786218613;1,873291774;2,12790878;9,232272492
16,63387104;-7,37145555;1,296416588;3,610227649;8,309801235
16,64389104;-5,504870532;0,84661777;3,080634218;6,364799164
16,65391104;-2,544199252;1,055906575;4,662852182;5,415725159
16,66393104;4,894540793;2,507322325;18,96726596;19,7484271
16,67395104;10,35487747;2,142022789;19,05141909;21,78917893
16,68397104;3,046736739;-1,220733737;2,330687295;4,025530882
16,69399104;-2,097415843;-1,288196572;-6,72295548;7,15938084
16,70401104;-2,25284916;0,662354463;-6,216315878;6,645045212
16,71403104;-2,716009744;1,420036667;-3,165297807;4,405941814
16,72405104;-2,280406649;0,929197412;-0,989480451;2,653814967
16,73407104;-1,063645584;0,005505154;-0,090524839;1,067505026
16,74409104;-0,377550475;-0,064352117;-0,575464838;0,69126358
16,75411104;-0,4577063;-0,01044839;-0,922484808;1,029845837
16,76413104;-1,485637456;-0,036074397;-0,494963881;1,566336253
16,77415104;-2,269919522;0,012651036;0,44145718;2,312483325
16,78417104;-2,17409272;-0,083823929;1,025937256;2,405463128
16,79419092;-2,674098948;-0,920741753;0,941820381;2,980871716
16,80421092;-2,050024452;-1,411320807;-0,871353246;2,636983723
16,81423092;0,81977291;-1,30313153;-1,327227906;2,032661635
16,82425092;3,330622568;-1,155593415;-2,000758737;4,053575996
16,83427092;3,134215763;-0,066105697;-0,068864998;3,135669115
16,84429092;1,569228082;1,415813223;4,30641761;4,797107096
16,85431092;-0,482229596;0,467584879;-0,70247104;0,9719293
16,86433092;-4,544960912;0,254893579;2,14552761;5,032388017
16,87435092;-3,928923414;-0,473529158;1,950834625;4,412077151
16,88437092;-2,767484245;-0,336764538;-0,376189975;2,813165174
16,89439092;-2,08335899;-0,527404234;-0,543974658;2,216855506
16,90441092;-2,343518279;-0,389350888;-0,975924266;2,568287408
16,91443092;-4,314637626;-0,224701481;-3,331416035;5,455723728
16,92445092;-8,866550585;-0,259446806;-8,901291817;12,56646442
16,93447092;-10,96465903;2,155310002;-13,07156754;17,19694702
16,94449092;-4,846489252;1,780221643;-13,31510991;14,28109937
16,95451092;-2,370247217;-2,325407259;-9,962111807;10,50091722
16,96453092;-0,095572703;-3,431979958;-8,241832895;8,928349794
16,97455092;4,515021999;-2,994515841;-4,809985962;7,244895701
16,98457092;16,7627838;0,022486053;6,363062865;17,92986323
16,99459092;23,95408254;3,587648041;16,39009865;29,24559151
17,00461092;15,67918364;0,900872329;16,75285055;22,96315249
17,01463092;6,130056583;-1,988239263;5,65790386;8,575696191
17,02465092;2,342393713;-0,512910156;-0,751289151;2,512831177
17,03467192;1,673532908;0,310621637;-1,059498812;2,00492791
17,04469092;0,672781145;2,232288596;-0,40048574;2,365615284
17,05471192;-0,410678424;2,593452981;-0,344810015;2,648310608
17,06473192;-2,245415888;1,142282814;-1,505389936;2,934774505
17,07475192;-3,67000315;1,926661651;-0,194756135;4,149563614
17,08477192;-3,498100565;1,782593858;0,896801498;4,027232468
17,09479192;-1,295354149;1,51137076;0,634850622;2,089310714
17,10481192;1,667010485;0,74621406;-1,331082975;2,259987006
17,11483192;0,57652958;0,785342458;-0,964383324;1,370833443
17,12485192;-0,427572419;1,719125841;2,34039075;2,935241164
17,13487192;1,758748036;1,342824769;-0,702777726;2,321695403
17,14489192;2,383272767;0,615261573;-1,449846357;2,856674701
17,15491192;3,326673358;0,61933065;-5,075627015;6,100189807
17,16493192;3,470602864;-1,526920261;-2,304505802;4,437039183
17,17495192;1,402253822;-2,12207092;2,009599727;3,241603281
17,18497192;1,110797092;-3,722459691;6,63998232;7,692850027
17,19499192;1,998318401;-3,944815269;0,760427764;4,486991679
17,20501192;-0,994378152;-0,551657315;-0,838814953;1,413054927
17,21503192;-4,313874272;-1,790142614;-0,384193059;4,686333974
17,22505192;-5,240803256;-0,460658267;-0,441771176;5,279525223
17,23507192;-2,612897019;-0,824243984;-0,145134324;2,743660502
17,24509192;-2,903025919;-0,933844194;-0,322640589;3,06654878
17,25511192;-2,979896632;0,323149297;-0,007294986;2,997375957
17,26513192;-3,244154527;0,068385526;1,011693438;3,398932007
17,27515192;-2,501076329;0,239594924;1,05231463;2,723996074
17,28517192;-1,853007345;0,332747501;0,967309563;2,116611658
17,29519192;-2,080815597;-0,720798553;1,110041267;2,466076989
17,30521192;-2,545312269;-1,017314951;0,74797758;2,841305109
17,31523192;-2,59924991;-1,30843554;0,165869136;2,91472404
17,32525192;-2,688607937;-1,385856768;-0,149359522;3,028451731
17,33527192;-1,441569477;-1,460188912;-0,576128497;2,131243361
17,34529192;-0,347731357;-1,980699863;-1,312907198;2,401627439
17,35531192;-0,738188026;-1,856900859;-1,598852708;2,559166338
17,36533192;-0,062910266;-1,652117334;-1,77783364;2,427785377
17,37535192;0,418702083;-1,572847216;-1,729611652;2,375019214
17,38537192;1,182372859;-1,668687174;-1,610823712;2,603320091
17,39539192;2,147154306;-1,833933581;-1,239859979;3,083964455
17,40541192;2,599348436;-1,079381976;-0,569614699;2,871609069
17,41543192;2,730095978;-1,273464512;-0,192988522;3,018671974
17,42545192;2,998835472;-0,596242334;0,387922997;3,082045321
17,43547192;3,231466654;1,777773414;0,825410503;3,779438787
17,44549192;3,267255707;0,9842852;1,501958497;3,728224314
17,45551192;1,298655779;-1,528139405;0,047068917;2,005974167
17,46553192;2,005661627;-1,065085534;-1,207885065;2,572172639
17,47555192;2,75579683;-0,867104659;-0,016221346;2,889039597
17,48557192;1,520866346;-0,783236291;0,819854479;1,897012097
17,49559192;-0,03506049;0,417582999;0,047831978;0,421773277
17,50561192;0,771903217;-1,014540448;-0,78409934;1,496642466
17,51563192;0,735180218;-0,87171285;-0,854550102;1,425001447
17,52565192;-0,043818596;2,411243801;-0,027183121;2,411795111
17,53567192;-0,766941416;2,869421679;0,235470883;2,979467476
17,54569192;-0,08121037;0,718152103;0,011073457;0,722814076
17,55571192;-0,030307581;-0,838989492;0,833860899;1,183277616
17,56573192;0,246621523;-0,347343321;1,299611506;1,367647479
17,57575192;1,007334193;0,769569009;0,762890319;1,479513526
17,58577192;0,318468601;0,909019255;-0,17119478;0,978287232
17,59579192;-0,137077007;1,743943178;-0,165990758;1,757179799
17,60581192;-0,025631124;2,598368735;0,354339514;2,622543332
17,61583192;-0,95282104;2,543548749;0,564201347;2,774136142
17,62585192;-0,964398381;2,123849643;0,93348459;2,512408212
17,63587192;0,152346426;2,891354585;1,006036842;3,065167352
17,64589192;0,606435931;2,406758401;0,584677126;2,549921152
17,65591192;-0,242684885;1,636745004;0,427933155;1,709080732
17,66593192;-2,024377395;0,890083632;0,396254695;2,246635371
17,67595192;-2,297057911;-0,524611604;-0,369127707;2,384941854
17,68597192;-1,336692794;-1,26547897;-1,043687648;2,116002967
17,69599192;-0,019252835;0,258807705;-1,31193042;1,33735318
17,70601192;1,01706279;1,285002823;-1,443606209;2,183952348
17,71603292;1,275883505;1,338434095;-1,721518521;2,526442274
17,72605292;1,219244159;-0,624050522;-1,483789152;2,019313155
17,73607292;-0,104964099;-2,818495939;-0,958536401;2,978880469
17,74609292;0,94049701;-0,869857528;-1,402121383;1,899244881
17,75611292;1,550851599;-0,064947363;-1,870182225;2,430419798
17,76613292;1,897484629;-0,351864973;-1,622274315;2,52111698
17,77615292;2,286210157;-0,415423037;-1,074807699;2,560184519
17,78617292;0,67398801;-0,678568792;-0,03378989;0,957004284
17,79619267;0,030727703;-0,452016082;0,602113523;0,753527322
17,80621267;0,180899623;0,104987926;0,667256476;0,699269864
17,81623267;0,457499747;-0,043475803;0,476842191;0,66224968
17,82625267;0,155521245;-0,870321212;0,650486369;1,097623973
17,83627267;-0,026019598;-1,163421083;1,113797518;1,610829149
17,84629267;-0,210887507;-0,424461079;1,499877473;1,572982257
17,85631267;-0,720840726;0,464081227;1,615024937;1,828466101
17,86633267;-1,058497184;0,537963136;1,331260146;1,783836932
17,87635267;-0,505780901;0,788069599;0,749483531;1,199413847
17,88637267;0,304253435;0,750780736;0,430253623;0,917256804
17,89639267;1,417473832;1,112801737;-0,16025347;1,809210034
17,90641267;-1,022021668;0,260773539;1,176566793;1,580139407
17,91643267;1,316549721;2,947598952;-2,803291424;4,275521671
17,92645267;4,077438891;12,86506259;-2,912352813;13,80641671
17,93647267;-4,23683399;-7,886488245;4,831215155;10,17291005
17,94649267;-3,670816498;-6,868761064;9,480124651;12,26896637
17,95651267;-7,424452958;-2,699943641;3,475135918;8,630687518
17,96653267;-2,018583243;1,844976048;-3,350479712;4,324850197
17,97655267;-3,322559257;0,7111027;-0,690473723;3,467249779
17,98657267;-4,313556183;-1,330330439;-2,32831815;5,079134909
17,99659267;-0,783091718;-1,563616802;-4,023560892;4,387159946
18,00661267;1,562157775;-1,211683416;-3,559721155;4,07187037
18,01663267;2,011844473;-1,212184523;-2,623436333;3,52126791
18,02665267;3,207677549;-0,411119487;-1,898485819;3,749995053
18,03667267;3,607024544;0,805536987;-1,518555234;3,995688414
18,04669267;3,062120179;1,197020354;-1,722290938;3,711566218
18,05671267;2,285536119;0,675714766;-2,165527427;3,220213476
18,06673267;1,633433726;-0,3098691;-1,851285632;2,488249
18,07675267;1,169370625;-0,492170082;-0,403886481;1,331459101
18,08677267;1,163225201;-0,668274184;0,534347949;1,444025964
18,09679267;0,778314982;-1,191530403;1,160848747;1,83659705
18,10681267;0,333326083;-1,132593393;1,417518271;1,844785115
18,11683267;0,174994008;-0,891436093;1,803725111;2,019580522
18,12685267;0,183555794;-0,477409371;1,893147165;1,961024891
18,13687267;0,292965239;-0,458056256;1,773019189;1,854519131
18,14689267;0,392688624;-0,737833831;1,5983038;1,803656884
18,15691267;0,179501773;-1,122102318;1,227079135;1,672440643
18,16693267;0,002855488;-0,684349349;0,580434387;0,897355149
18,17695267;-0,209358095;-0,400647708;-0,09428109;0,461777351
18,18697267;-0,268277563;-0,043620813;-0,657435858;0,711405323
18,19699267;-0,487439392;0,782558599;-0,810181576;1,227350523
18,20701267;-0,664607687;0,679662806;-1,105318471;1,45786619
18,21703267;-1,115859246;0,920865714;-1,142978048;1,843782617
18,22705267;-1,168384346;1,356466323;-0,88279632;1,996109268
18,23707267;-1,647630912;0,198120039;-1,409585938;2,177354286
18,24709267;-1,635977703;-0,001267676;-1,724662569;2,377159151
18,25711267;-0,697642409;0,323489605;-3,518341579;3,601399439
18,26713267;-1,411779521;-0,807146725;-4,735345377;5,006805677
18,27715267;-1,932754011;-2,724293202;-1,421378018;3,630100134
18,28717267;-0,742199508;2,269213178;-2,092538242;3,174729099
18,29719267;-2,391859404;1,638137811;-1,352433645;3,198994163
18,30721267;-2,25315804;1,325740374;-0,888283274;2,761042533
18,31723267;-1,5122246;0,433661672;0,615184097;1,689182394
18,32725267;-1,198048148;-0,727284869;2,355851665;2,741222303
18,33727267;0,233789662;0,267732895;1,759686514;1,79522565
18,34729267;1,638311765;-0,591251736;1,44374698;2,262310633
18,35731267;2,25326826;-0,883090947;1,128286772;2,670224431
18,36733267;2,801991003;0,187973365;0,915725427;2,953817974
18,37735267;3,431467157;0,731268577;0,956152783;3,636474766
18,38737267;6,982123373;-0,792357363;1,142402389;7,119196598
18,39739267;5,842325041;5,34348738;-0,81524585;7,959286718
18,40741367;4,211678391;2,600704697;-0,924456635;5,035525778
18,41743367;1,605826097;1,925968171;-1,640095459;2,996321739
18,42745367;0,122601494;2,437843369;-2,724880847;3,658290181
18,43747367;-0,846163587;1,895753853;-2,417751313;3,186753348
18,44749367;-2,476804244;1,085019861;-1,974549323;3,34823422
18,45751367;-3,330660574;1,538477867;-1,572466124;3,991599143
18,46753367;-3,36592864;0,262951042;-1,189392222;3,579563203
18,47755367;-3,776669812;-1,444884995;-0,597820059;4,087580744
18,48757367;-3,379404134;-2,357072856;0,15070789;4,122969514
18,49759367;-2,313473823;-3,527437508;0,470345057;4,244549561
18,50761367;-2,439924101;-4,354797472;0,539572582;5,020819576
18,51763367;-2,185815072;-3,89852871;1,360354575;4,671924465
18,52765367;-0,91353696;-4,435155757;2,026967419;4,961224978
18,53767367;-0,83353594;-4,430030673;2,345004203;5,081239872
18,54769367;-0,685692308;-2,981118701;2,684294153;4,069726987
18,55771367;0,153002192;-2,426158878;2,672410272;3,612676741
18,56773367;0,871911801;-1,843435307;2,588116812;3,294970796
18,57775367;1,661261502;-1,323185141;2,367194825;3,180286156
18,58777367;1,46608466;-1,022992013;1,78122254;2,52362252
18,59779367;0,584409032;-0,917386621;1,21684183;1,632126272
18,60781367;0,225116048;-0,624410711;1,035535314;1,229999739
18,61783367;0,361204438;-0,067442955;0,919341783;0,990053793
18,62785367;0,62127865;0,591635313;0,472802349;0,979572134
18,63787367;0,844469503;0,821318622;-0,09042836;1,181469554
18,64789367;0,533446746;0,797530979;-0,699271443;1,187266459
18,65791367;0,225073949;1,090860645;-1,210379195;1,644886934
18,66793367;0,451988016;1,321060848;-1,904616478;2,361579738
18,67795367;0,782408033;1,410720883;-2,664610671;3,11487492
18,68797367;0,988322702;1,729992306;-3,134748445;3,714337485
18,69799367;1,152040355;2,149704861;-3,135830179;3,972638781
18,70801367;1,148561262;2,825518445;-2,703713049;4,075881709
18,71803367;1,186882451;3,787501194;-2,182480405;4,529577902
18,72805367;1,421629449;4,909588895;-1,977526726;5,480484044
18,73807367;1,337270791;5,573020999;-2,572143973;6,28194085
18,74809367;0,261644482;4,607618213;-3,797088874;5,976327246
18,75811367;0,146555783;2,947082643;-4,684366135;5,536249704
18,76813367;0,580555716;2,410937406;-4,92610494;5,515086037
18,77815367;0,818110254;4,205419239;-4,690974365;6,352959614
18,78817367;1,010305163;5,828588178;-3,786375021;7,023517101
18,79819367;1,011899699;5,349490131;-2,574139335;6,022223757
18,80821367;0,399696951;4,237747325;-1,536610851;4,525420748
18,81823367;-0,338825536;3,401471525;-0,774374543;3,504920429
18,82825367;-0,130085346;2,535934505;-0,289504125;2,555718813
18,83827367;0,415177162;2,004540716;0,083906229;2,048803508
18,84829367;0,981066454;1,1974893;0,703943807;1,700590749
18,85831367;1,293659041;-0,007657514;0,712126693;1,47673179
18,86833367;0,312291748;-0,152734535;0,783211733;0,856898239
18,87835367;-0,61546491;0,58745163;1,147912659;1,428845669
18,88837367;-1,297284168;1,504252945;1,177671479;2,309249499
18,89839367;-1,956899795;1,524324097;0,96084722;2,660121829
18,90841367;-1,706880602;1,038257924;0,54460433;2,070752226
18,91843367;-1,44792467;0,761367704;0,380291212;1,67952018
18,92845367;-1,279819997;0,603543168;0,364556939;1,461199966
18,93847367;-1,27164749;0,247959951;0,245600636;1,31867022
18,94849367;-1,208123924;-0,680734016;0,257614873;1,410435266
18,95851367;-1,226403197;-1,275237388;0,12150865;1,773431575
18,96853467;-1,333641717;-1,303499905;0,05575554;1,865695825
18,97855467;-1,762450785;-1,391676502;-0,070608637;2,246771425
18,98857467;-2,408547942;-1,494189302;-0,069744382;2,835237051
18,99859467;-2,147162492;-1,275220431;0,001756504;2,49729794
19,00861467;-1,239198951;-1,002957113;-0,019823304;1,594343117
19,01863467;-0,282973663;-0,781157606;0,092478393;0,83596265
19,02865467;-0,071507062;-0,806659067;0,32173946;0,871394509
19,03867467;-0,456660672;-1,155442557;0,833333407;1,496005027
19,04869467;0,03849953;-1,378679895;1,141616231;1,790398863
19,05871467;0,58899471;-1,40143492;1,189639486;1,930330726
19,06873467;1,23565013;-1,428134476;1,175668076;2,224543717
19,07875467;1,734558397;-1,524688379;1,267123207;2,63419223
19,08877467;1,655938782;-1,256366084;1,298382422;2,450792912
19,09879467;1,269812049;-0,826283492;1,249924207;1,964046225
19,10881467;0,466328897;-0,310723963;1,26734774;1,385706432
19,11883467;-0,684199076;0,187010913;1,39973338;1,569189279
19,12885467;-0,956315628;0,664684578;1,412615966;1,830800108
19,13887467;-0,798284977;1,10442677;1,148019005;1,781843156
19,14889467;-0,363452985;1,142186335;1,000808335;1,56150729
19,15891467;-3,499416773;-2,762205378;0,070349167;4,458771727
19,16893467;-1,065831346;-13,19997941;-0,636330187;13,25821892
19,17895467;1,79689761;-1,442959507;0,10969848;2,307164258
19,18897467;-4,110121318;-0,430351564;-1,606326034;4,433800068
19,19899467;-4,024611929;-2,052973788;-0,16376063;4,52095345
19,20901467;-3,051624134;-3,088903935;-1,466798605;4,583146902
19,21903467;0,632730422;-5,036582233;-1,952927928;5,438881858
19,22905467;3,773150373;-4,48538334;-1,248380542;5,992810811
19,23907467;4,721446837;-2,212087051;-0,456418451;5,233899804
19,24909467;5,336364301;-2,577198306;0,279952991;5,932715124
19,25911467;6,405593172;-2,215845641;0,999034216;6,851252817
19,26913467;7,010593466;-2,388329732;1,721985129;7,603799869
19,27915467;5,916775884;-2,841254472;1,582516172;6,751690253
19,28917467;5,011897627;-3,481744441;0,830717436;6,158876004
19,29919467;3,657836848;-4,769754487;0,584339157;6,039187075
19,30921467;1,776793859;-4,671812455;0,762329571;5,056082911
19,31923467;0,507752473;-4,357953215;0,975057124;4,494474963
19,32925467;-0,205229814;-3,857753152;1,406921947;4,111424087
19,33927467;-0,835086987;-2,998502473;1,383444207;3,406215675
19,34929467;-0,635103587;-2,205001979;1,430066981;2,703790278
19,35931467;0,578445237;-1,253186953;1,543945014;2,070952109
19,36933467;1,885519618;-1,361063404;1,619574655;2,833848952
19,37935467;2,035650242;-3,749677311;3,92422196;5,796849992
19,38937467;1,727206693;0,220656377;4,781851791;5,089011569
19,39939467;1,957395785;2,216219863;4,55721346;5,432423332
19,40941467;3,360907636;1,482947445;4,289006941;5,6471598
19,41943467;4,119665143;2,163070427;3,856484891;6,043425376
19,42945467;3,806291514;3,208298816;3,590888568;6,138038538
19,43947467;3,178286228;4,182093526;3,0652461;6,081705621
19,44949467;2,650343465;3,80555038;2,522403463;5,279114832
19,45951467;2,463824887;3,334496933;1,555999049;4,428367183
19,46953467;1,964962229;3,357745462;0,820989423;3,976123084
19,47955467;1,145336376;3,814272671;0,131269699;3,984683571
19,48957467;0,672131884;3,832855123;-0,617032694;3,939957996
19,49959467;0,423755831;3,739390889;-1,183900956;3,945153317
19,50961467;0,10427029;3,865587836;-1,637371387;4,199360269
19,51963567;-0,31676136;3,954567255;-2,064008068;4,472031892
19,52965567;-0,767650391;4,17670941;-2,547780087;4,952309763
19,53967567;-1,006568061;3,949577826;-3,451446508;5,340863906
19,54969567;-1,867053088;3,242875741;-4,14211202;5,582044633
19,55971567;-2,832922774;3,365204755;-4,699094394;6,436733846
19,56973567;-3,414085139;3,519591714;-4,882246145;6,919525315
19,57975567;-13,89917542;-0,42723032;0,728814354;13,9248258
19,58977567;-14,68142412;2,109160268;-14,88898741;21,01605856
19,59979567;-6,938405496;-11,43229829;3,248455154;13,76195393
19,60981567;-9,645904909;-8,685671062;2,027762056;13,13758662
19,61983567;-7,411334145;-8,824892097;2,638774749;11,82242473
19,62985567;0,238129666;-6,352882862;-1,102939239;6,452309769
19,63987567;6,979314371;-3,231688848;-3,669662257;8,521799281
19,64989567;8,664027008;-2,3612121;-4,108842532;9,87538726
